image;correctAns;respModal;frameColor;repSwitch;sequence;target;set;block;list;exp_version;stimulus;baseline;baseline_condition;trial_no;psychopy_trial;Column1;trialsREPSWITCH.thisRepN;trialsREPSWITCH.thisTrialN;trialsREPSWITCH.thisN;trialsREPSWITCH.thisIndex;textWelcome.started;textboxInstrMain1.started;textboxInstrMain1_2.started;textboxInstrMain1_3.started;keyInstrMain.started;keyInstrMain.keys;keyInstrMain.rt;textboxInstrMain2.started;textboxInstrMain2_2.started;textboxInstrMain2_3.started;textboxInstrMain2_4.started;textboxInstrMain2_5.started;textboxInstrMain2_6.started;textboxInstrMain2_7.started;textboxInstrMain2_8.started;textboxInstrMain2_9.started;textboxInstrMain2_10.started;textboxInstrMain2_11.started;textboxInstrMain2_12.started;keyInstrMain2.started;keyInstrMain2.keys;keyInstrMain2.rt;fixationITI.started;fixationITI.stopped;polygonColour.started;polygonWhite.started;imageObject.started;polygonType.started;textInput.started;keyResp.started;micRespv1l2.started;keyResp.keys;keyResp.corr;subjResponse;micRespv1l2.clip;textBlankLoop.started;textBlankLoop.stopped;keyPause.keys;polygonColour.stopped;polygonWhite.stopped;imageObject.stopped;polygonType.stopped;textInput.stopped;keyResp.stopped;keyResp.rt;textboxPause.started;keyPause.started;keyPause.rt;textboxGoodbye.started;textboxGoodbye.stopped;participant;session;date;expName;psychopyVersion;frameRate;Column2
;;;;;;;;;;;;;;;;;;;;;8.826055800076574;11.323637299938127;11.323637299938127;11.323637299938127;11.323637299938127;space;6.373571099713445;;;;;;;;;;;;;;;;;;;;;;;;;;;;;;;;;;;;;;;;;;;;110102;001;2023-11-27_12h18.52.572;REPSWITCH1_version1_list2;2022.2.4;143.92817420724344;
;;;;;;;;;;;;;;;;;;;;;;;;;;;;17.71329930005595;17.71329930005595;17.71329930005595;17.71329930005595;17.71329930005595;17.71329930005595;17.71329930005595;17.71329930005595;17.71329930005595;17.71329930005595;17.71329930005595;17.71329930005595;17.71329930005595;space;3.2729482997674495;;;;;;;;;;;;;;;;;;;;;;;;;;;;;110102;001;2023-11-27_12h18.52.572;REPSWITCH1_version1_list2;2022.2.4;143.92817420724344;
REPSWITCH1/PICTURE_646.png;tronco;speak;gold;filler;2;F;1;3;2;1;Extra4;0;None;1;0;1;0;0;0;0;;;;;;;;;;;;;;;;;;;;;;;21.08187759993598;22.109709300100803;22.109709300100803;22.109709300100803;22.109709300100803;22.109709300100803;22.109709300100803;22.109709300100803;22.109709300100803;None;0;;C:\2023\REPSWITCH21092023\REPSWITCH_excgange\REPSWITCH_excgange\data/110102_REPSWITCH1_version1_list2_2023-11-27_12h18.52.572_micRespv1l2_recorded\recording_micRespv1l2_2023-11-27_12h19.10.733.wav;25.13789190002717;25.63800229993649;None;;;;;;;;;;;;;110102;001;2023-11-27_12h18.52.572;REPSWITCH1_version1_list2;2022.2.4;143.92817420724344;
REPSWITCH1/PICTURE_340.png;espejo;type;darkblue;filler;1;F;1;3;2;1;Extra1;0;None;2;1;2;0;1;1;1;;;;;;;;;;;;;;;;;;;;;;;25.63800229993649;26.658907199976966;26.658907199976966;26.658907199976966;26.658907199976966;26.658907199976966;26.658907199976966;26.658907199976966;26.658907199976966;['e', 's', 'p', 'e', 'j', 'o'];0;espejo;C:\2023\REPSWITCH21092023\REPSWITCH_excgange\REPSWITCH_excgange\data/110102_REPSWITCH1_version1_list2_2023-11-27_12h18.52.572_micRespv1l2_recorded\recording_micRespv1l2_2023-11-27_12h19.15.287.wav;29.68706570006907;;None;29.68706570006907;29.68706570006907;29.68706570006907;29.68706570006907;29.68706570006907;29.68706570006907;[1.0642909999005497, 1.3034292000811547, 1.4668773000594229, 1.628701200010255, 1.7941473999526352, 1.9156998000107706];;;;;;110102;001;2023-11-27_12h18.52.572;REPSWITCH1_version1_list2;2022.2.4;143.92817420724344;
REPSWITCH1/PICTURE_338.png;regalo;speak;gold;filler;2;F;1;3;2;1;Stim6_Set4;0;None;3;2;3;0;2;2;2;;;;;;;;;;;;;;;;;;;;;;;30.1871166001074;31.263756999978796;31.263756999978796;31.263756999978796;31.263756999978796;31.263756999978796;31.263756999978796;31.263756999978796;31.263756999978796;None;0;;C:\2023\REPSWITCH21092023\REPSWITCH_excgange\REPSWITCH_excgange\data/110102_REPSWITCH1_version1_list2_2023-11-27_12h18.52.572_micRespv1l2_recorded\recording_micRespv1l2_2023-11-27_12h19.19.892.wav;34.29185830010101;;None;34.29185830010101;34.29185830010101;34.29185830010101;34.29185830010101;34.29185830010101;34.29185830010101;;;;;;;110102;001;2023-11-27_12h18.52.572;REPSWITCH1_version1_list2;2022.2.4;143.92817420724344;
REPSWITCH1/PICTURE_142.png;vaso;speak;gold;nontarget;2;NT;1;3;2;1;Stim7_Set1;1;repeat;4;3;4;0;3;3;3;;;;;;;;;;;;;;;;;;;;;;;34.79199109994806;35.88235060009174;35.88235060009174;35.88235060009174;35.88235060009174;35.88235060009174;35.88235060009174;35.88235060009174;35.88235060009174;None;0;;C:\2023\REPSWITCH21092023\REPSWITCH_excgange\REPSWITCH_excgange\data/110102_REPSWITCH1_version1_list2_2023-11-27_12h18.52.572_micRespv1l2_recorded\recording_micRespv1l2_2023-11-27_12h19.24.510.wav;38.91052610008046;;None;38.91052610008046;38.91052610008046;38.91052610008046;38.91052610008046;38.91052610008046;38.91052610008046;;;;;;;110102;001;2023-11-27_12h18.52.572;REPSWITCH1_version1_list2;2022.2.4;143.92817420724344;
REPSWITCH1/PICTURE_142.png;vaso;speak;gold;repeat;2;T;1;3;2;1;Stim7_Set1;0;None;5;4;5;0;4;4;4;;;;;;;;;;;;;;;;;;;;;;;39.410584500059485;40.591335700126365;40.591335700126365;40.591335700126365;40.591335700126365;40.591335700126365;40.591335700126365;40.591335700126365;40.591335700126365;None;0;;C:\2023\REPSWITCH21092023\REPSWITCH_excgange\REPSWITCH_excgange\data/110102_REPSWITCH1_version1_list2_2023-11-27_12h18.52.572_micRespv1l2_recorded\recording_micRespv1l2_2023-11-27_12h19.29.219.wav;43.619484200142324;;None;43.619484200142324;43.619484200142324;43.619484200142324;43.619484200142324;43.619484200142324;43.619484200142324;;;;;;;110102;001;2023-11-27_12h18.52.572;REPSWITCH1_version1_list2;2022.2.4;143.92817420724344;
REPSWITCH1/PICTURE_498.png;taza;type;darkblue;filler;1;F;1;3;2;1;Stim4_Set4;0;None;6;5;6;0;5;5;5;;;;;;;;;;;;;;;;;;;;;;;44.11961210006848;45.237782899988815;45.237782899988815;45.237782899988815;45.237782899988815;45.237782899988815;45.237782899988815;45.237782899988815;45.237782899988815;['t', 'a', 'z', 'a'];0;taza;C:\2023\REPSWITCH21092023\REPSWITCH_excgange\REPSWITCH_excgange\data/110102_REPSWITCH1_version1_list2_2023-11-27_12h18.52.572_micRespv1l2_recorded\recording_micRespv1l2_2023-11-27_12h19.33.865.wav;48.26589290006086;;None;48.26589290006086;48.26589290006086;48.26589290006086;48.26589290006086;48.26589290006086;48.26589290006086;[1.1446737998630852, 1.2802033997140825, 1.4855318998452276, 1.675891999853775];;;;;;110102;001;2023-11-27_12h18.52.572;REPSWITCH1_version1_list2;2022.2.4;143.92817420724344;
REPSWITCH1/PICTURE_16.png;cazador;speak;gold;nontarget;2;NT;1;3;2;1;Stim6_Set1;1;switch;7;6;7;0;6;6;6;;;;;;;;;;;;;;;;;;;;;;;48.76595010003075;49.83555560000241;49.83555560000241;49.83555560000241;49.83555560000241;49.83555560000241;49.83555560000241;49.83555560000241;49.83555560000241;None;0;;C:\2023\REPSWITCH21092023\REPSWITCH_excgange\REPSWITCH_excgange\data/110102_REPSWITCH1_version1_list2_2023-11-27_12h18.52.572_micRespv1l2_recorded\recording_micRespv1l2_2023-11-27_12h19.38.462.wav;52.86373360012658;;None;52.86373360012658;52.86373360012658;52.86373360012658;52.86373360012658;52.86373360012658;52.86373360012658;;;;;;;110102;001;2023-11-27_12h18.52.572;REPSWITCH1_version1_list2;2022.2.4;143.92817420724344;
REPSWITCH1/PICTURE_16.png;cazador;speak;gold;repeat;2;T;1;3;2;1;Stim6_Set1;0;None;8;7;8;0;7;7;7;;;;;;;;;;;;;;;;;;;;;;;53.36378569994122;54.468107799999416;54.468107799999416;54.468107799999416;54.468107799999416;54.468107799999416;54.468107799999416;54.468107799999416;54.468107799999416;None;0;;C:\2023\REPSWITCH21092023\REPSWITCH_excgange\REPSWITCH_excgange\data/110102_REPSWITCH1_version1_list2_2023-11-27_12h18.52.572_micRespv1l2_recorded\recording_micRespv1l2_2023-11-27_12h19.43.096.wav;57.496285000117496;;None;57.496285000117496;57.496285000117496;57.496285000117496;57.496285000117496;57.496285000117496;57.496285000117496;;;;;;;110102;001;2023-11-27_12h18.52.572;REPSWITCH1_version1_list2;2022.2.4;143.92817420724344;
REPSWITCH1/PICTURE_719.png;baño;type;darkblue;filler;1;F;1;3;2;1;Stim2_Set4;0;None;9;8;9;0;8;8;8;;;;;;;;;;;;;;;;;;;;;;;57.99642170011066;59.16316330013797;59.16316330013797;59.16316330013797;59.16316330013797;59.16316330013797;59.16316330013797;59.16316330013797;59.16316330013797;['b', 'a', 'ñ', 'o'];0;baño;C:\2023\REPSWITCH21092023\REPSWITCH_excgange\REPSWITCH_excgange\data/110102_REPSWITCH1_version1_list2_2023-11-27_12h18.52.572_micRespv1l2_recorded\recording_micRespv1l2_2023-11-27_12h19.47.791.wav;62.19134160014801;;None;62.19134160014801;62.19134160014801;62.19134160014801;62.19134160014801;62.19134160014801;62.19134160014801;[1.106173899723217, 1.2556784998159856, 1.8160190999042243, 2.106603599851951];;;;;;110102;001;2023-11-27_12h18.52.572;REPSWITCH1_version1_list2;2022.2.4;143.92817420724344;
REPSWITCH1/PICTURE_169.png;espalda;speak;gold;nontarget;2;NT;1;3;2;1;Stim8_Set1;0;None;10;9;10;0;9;9;9;;;;;;;;;;;;;;;;;;;;;;;62.69142209994607;63.879128500120714;63.879128500120714;63.879128500120714;63.879128500120714;63.879128500120714;63.879128500120714;63.879128500120714;63.879128500120714;None;0;;C:\2023\REPSWITCH21092023\REPSWITCH_excgange\REPSWITCH_excgange\data/110102_REPSWITCH1_version1_list2_2023-11-27_12h18.52.572_micRespv1l2_recorded\recording_micRespv1l2_2023-11-27_12h19.52.507.wav;66.90725119994022;67.40730810002424;None;66.90725119994022;66.90725119994022;66.90725119994022;66.90725119994022;66.90725119994022;66.90725119994022;;;;;;;110102;001;2023-11-27_12h18.52.572;REPSWITCH1_version1_list2;2022.2.4;143.92817420724344;
REPSWITCH1/PICTURE_169.png;espalda;type;darkblue;switch;1;T;1;3;2;1;Stim8_Set1;0;None;11;10;11;0;10;10;10;;;;;;;;;;;;;;;;;;;;;;;67.40730810002424;68.51159689994529;68.51159689994529;68.51159689994529;68.51159689994529;68.51159689994529;68.51159689994529;68.51159689994529;68.51159689994529;['e', 's', 'p', 'a', 'l', 'd', 'a'];0;espalda;C:\2023\REPSWITCH21092023\REPSWITCH_excgange\REPSWITCH_excgange\data/110102_REPSWITCH1_version1_list2_2023-11-27_12h18.52.572_micRespv1l2_recorded\recording_micRespv1l2_2023-11-27_12h19.57.139.wav;71.53978670015931;;None;71.53978670015931;71.53978670015931;71.53978670015931;71.53978670015931;71.53978670015931;71.53978670015931;[0.9743877998553216, 1.1886364999227226, 1.2773283999413252, 1.422287399880588, 1.5213091999758035, 1.6463787998072803, 1.7487187997903675];;;;;;110102;001;2023-11-27_12h18.52.572;REPSWITCH1_version1_list2;2022.2.4;143.92817420724344;
REPSWITCH1/PICTURE_687.png;camisa;type;darkblue;filler;1;F;1;3;2;1;Stim5_Set4;0;None;12;11;12;0;11;11;11;;;;;;;;;;;;;;;;;;;;;;;72.03984960005619;73.09552850015461;73.09552850015461;73.09552850015461;73.09552850015461;73.09552850015461;73.09552850015461;73.09552850015461;73.09552850015461;['c', 'a', 'm', 'i', 's', 'a'];0;camisa;C:\2023\REPSWITCH21092023\REPSWITCH_excgange\REPSWITCH_excgange\data/110102_REPSWITCH1_version1_list2_2023-11-27_12h18.52.572_micRespv1l2_recorded\recording_micRespv1l2_2023-11-27_12h20.01.724.wav;76.12370520015247;;None;76.12370520015247;76.12370520015247;76.12370520015247;76.12370520015247;76.12370520015247;76.12370520015247;[1.5444354999344796, 1.6857823999598622, 1.7964337000157684, 1.9080492998473346, 1.9906690998468548, 2.11026049987413];;;;;;110102;001;2023-11-27_12h18.52.572;REPSWITCH1_version1_list2;2022.2.4;143.92817420724344;
REPSWITCH1/PICTURE_178.png;puente;type;darkblue;nontarget;1;NT;1;3;2;1;Stim1_Set1;1;repeat;13;12;13;0;12;12;12;;;;;;;;;;;;;;;;;;;;;;;76.62378769996576;77.70033890008926;77.70033890008926;77.70033890008926;77.70033890008926;77.70033890008926;77.70033890008926;77.70033890008926;77.70033890008926;['p', 'u', 'e', 'n', 't', 'e'];0;puente;C:\2023\REPSWITCH21092023\REPSWITCH_excgange\REPSWITCH_excgange\data/110102_REPSWITCH1_version1_list2_2023-11-27_12h18.52.572_micRespv1l2_recorded\recording_micRespv1l2_2023-11-27_12h20.06.328.wav;80.7284653999377;;None;80.7284653999377;80.7284653999377;80.7284653999377;80.7284653999377;80.7284653999377;80.7284653999377;[1.136402899865061, 1.3917564998846501, 1.5545516998972744, 1.7153675998561084, 1.8788232000079006, 1.9924387000501156];;;;;;110102;001;2023-11-27_12h18.52.572;REPSWITCH1_version1_list2;2022.2.4;143.92817420724344;
REPSWITCH1/PICTURE_178.png;puente;speak;gold;switch;2;T;1;3;2;1;Stim1_Set1;0;None;14;13;14;0;13;13;13;;;;;;;;;;;;;;;;;;;;;;;81.22855380014516;82.24952589999884;82.24952589999884;82.24952589999884;82.24952589999884;82.24952589999884;82.24952589999884;82.24952589999884;82.24952589999884;None;0;;C:\2023\REPSWITCH21092023\REPSWITCH_excgange\REPSWITCH_excgange\data/110102_REPSWITCH1_version1_list2_2023-11-27_12h18.52.572_micRespv1l2_recorded\recording_micRespv1l2_2023-11-27_12h20.10.878.wav;85.2776959000621;;None;85.2776959000621;85.2776959000621;85.2776959000621;85.2776959000621;85.2776959000621;85.2776959000621;;;;;;;110102;001;2023-11-27_12h18.52.572;REPSWITCH1_version1_list2;2022.2.4;143.92817420724344;
REPSWITCH1/PICTURE_128.png;muñeca;speak;gold;nontarget;2;NT;1;3;2;1;Stim4_Set1;1;repeat;15;14;15;0;14;14;14;;;;;;;;;;;;;;;;;;;;;;;85.77776170009747;86.86131560010836;86.86131560010836;86.86131560010836;86.86131560010836;86.86131560010836;86.86131560010836;86.86131560010836;86.86131560010836;None;0;;C:\2023\REPSWITCH21092023\REPSWITCH_excgange\REPSWITCH_excgange\data/110102_REPSWITCH1_version1_list2_2023-11-27_12h18.52.572_micRespv1l2_recorded\recording_micRespv1l2_2023-11-27_12h20.15.489.wav;89.88249090011232;90.38252650015056;None;89.88249090011232;89.88249090011232;89.88249090011232;89.88249090011232;89.88249090011232;89.88249090011232;;;;;;;110102;001;2023-11-27_12h18.52.572;REPSWITCH1_version1_list2;2022.2.4;143.92817420724344;
REPSWITCH1/PICTURE_128.png;muñeca;type;darkblue;switch;1;T;1;3;2;1;Stim4_Set1;0;None;16;15;16;0;15;15;15;;;;;;;;;;;;;;;;;;;;;;;90.38252650015056;91.47996280016378;91.47996280016378;91.47996280016378;91.47996280016378;91.47996280016378;91.47996280016378;91.47996280016378;91.47996280016378;['m', 'u', 'l', 'e', 'c', 'a'];0;muleca;C:\2023\REPSWITCH21092023\REPSWITCH_excgange\REPSWITCH_excgange\data/110102_REPSWITCH1_version1_list2_2023-11-27_12h18.52.572_micRespv1l2_recorded\recording_micRespv1l2_2023-11-27_12h20.20.108.wav;94.50803730008192;;None;94.50803730008192;94.50803730008192;94.50803730008192;94.50803730008192;94.50803730008192;94.50803730008192;[0.8746923999860883, 1.0501209998037666, 1.3340702999848872, 1.4816152998246253, 1.8177878998685628, 2.054320599883795];;;;;;110102;001;2023-11-27_12h18.52.572;REPSWITCH1_version1_list2;2022.2.4;143.92817420724344;
REPSWITCH1/PICTURE_319.png;vaca;speak;gold;filler;2;F;1;3;2;1;Stim1_Set4;1;switch;17;16;17;0;16;16;16;;;;;;;;;;;;;;;;;;;;;;;95.00809470005333;96.18194709997624;96.18194709997624;96.18194709997624;96.18194709997624;96.18194709997624;96.18194709997624;96.18194709997624;96.18194709997624;None;0;;C:\2023\REPSWITCH21092023\REPSWITCH_excgange\REPSWITCH_excgange\data/110102_REPSWITCH1_version1_list2_2023-11-27_12h18.52.572_micRespv1l2_recorded\recording_micRespv1l2_2023-11-27_12h20.24.809.wav;99.20309620001353;99.70317520014942;None;99.20309620001353;99.20309620001353;99.20309620001353;99.20309620001353;99.20309620001353;99.20309620001353;;;;;;;110102;001;2023-11-27_12h18.52.572;REPSWITCH1_version1_list2;2022.2.4;143.92817420724344;
REPSWITCH1/PICTURE_728.png;pulpo;speak;gold;filler;2;F;1;3;2;1;Stim8_Set4;0;None;18;17;18;0;17;17;17;;;;;;;;;;;;;;;;;;;;;;;99.70317520014942;100.71720029995777;100.71720029995777;100.71720029995777;100.71720029995777;100.71720029995777;100.71720029995777;100.71720029995777;100.71720029995777;None;0;;C:\2023\REPSWITCH21092023\REPSWITCH_excgange\REPSWITCH_excgange\data/110102_REPSWITCH1_version1_list2_2023-11-27_12h18.52.572_micRespv1l2_recorded\recording_micRespv1l2_2023-11-27_12h20.29.345.wav;103.73840939998627;104.23853059997782;None;103.73840939998627;103.73840939998627;103.73840939998627;103.73840939998627;103.73840939998627;103.73840939998627;;;;;;;110102;001;2023-11-27_12h18.52.572;REPSWITCH1_version1_list2;2022.2.4;143.92817420724344;
REPSWITCH1/PICTURE_381.png;fresa;type;darkblue;nontarget;1;NT;1;3;2;1;Stim2_Set1;1;switch;19;18;19;0;18;18;18;;;;;;;;;;;;;;;;;;;;;;;104.23853059997782;105.2803057001438;105.2803057001438;105.2803057001438;105.2803057001438;105.2803057001438;105.2803057001438;105.2803057001438;105.2803057001438;['f', 'r', 's', 'backspace', 'e', 's'];0;fres;C:\2023\REPSWITCH21092023\REPSWITCH_excgange\REPSWITCH_excgange\data/110102_REPSWITCH1_version1_list2_2023-11-27_12h18.52.572_micRespv1l2_recorded\recording_micRespv1l2_2023-11-27_12h20.33.908.wav;108.30847329995595;;None;108.30847329995595;108.30847329995595;108.30847329995595;108.30847329995595;108.30847329995595;108.30847329995595;[1.0368921998888254, 1.2571231997571886, 1.4531247997656465, 2.6620532998349518, 2.7556926996912807, 2.9461033998522907];;;;;;110102;001;2023-11-27_12h18.52.572;REPSWITCH1_version1_list2;2022.2.4;143.92817420724344;
REPSWITCH1/PICTURE_381.png;fresa;type;darkblue;repeat;1;T;1;3;2;1;Stim2_Set1;0;None;20;19;20;0;19;19;19;;;;;;;;;;;;;;;;;;;;;;;108.80854790005833;109.98238210007548;109.98238210007548;109.98238210007548;109.98238210007548;109.98238210007548;109.98238210007548;109.98238210007548;109.98238210007548;['f', 'r', 'e', 's', 'a'];0;fresa;C:\2023\REPSWITCH21092023\REPSWITCH_excgange\REPSWITCH_excgange\data/110102_REPSWITCH1_version1_list2_2023-11-27_12h18.52.572_micRespv1l2_recorded\recording_micRespv1l2_2023-11-27_12h20.38.610.wav;113.01057100016624;;None;113.01057100016624;113.01057100016624;113.01057100016624;113.01057100016624;113.01057100016624;113.01057100016624;[1.0002232000697404, 1.1855861998628825, 1.246429800055921, 1.4517151999752969, 1.5892767999321222];;;;;;110102;001;2023-11-27_12h18.52.572;REPSWITCH1_version1_list2;2022.2.4;143.92817420724344;
REPSWITCH1/PICTURE_8.png;pierna;speak;gold;filler;2;F;1;3;2;1;Stim3_Set4;0;None;21;20;21;0;20;20;20;;;;;;;;;;;;;;;;;;;;;;;113.51060779998079;114.54541040002368;114.54541040002368;114.54541040002368;114.54541040002368;114.54541040002368;114.54541040002368;114.54541040002368;114.54541040002368;None;0;;C:\2023\REPSWITCH21092023\REPSWITCH_excgange\REPSWITCH_excgange\data/110102_REPSWITCH1_version1_list2_2023-11-27_12h18.52.572_micRespv1l2_recorded\recording_micRespv1l2_2023-11-27_12h20.43.173.wav;117.57358249998651;;None;117.57358249998651;117.57358249998651;117.57358249998651;117.57358249998651;117.57358249998651;117.57358249998651;;;;;;;110102;001;2023-11-27_12h18.52.572;REPSWITCH1_version1_list2;2022.2.4;143.92817420724344;
REPSWITCH1/PICTURE_48.png;bombero;speak;gold;filler;2;F;1;3;2;1;Stim7_Set4;0;None;22;21;22;0;21;21;21;;;;;;;;;;;;;;;;;;;;;;;118.07365090004168;119.19191009993665;119.19191009993665;119.19191009993665;119.19191009993665;119.19191009993665;119.19191009993665;119.19191009993665;119.19191009993665;None;0;;C:\2023\REPSWITCH21092023\REPSWITCH_excgange\REPSWITCH_excgange\data/110102_REPSWITCH1_version1_list2_2023-11-27_12h18.52.572_micRespv1l2_recorded\recording_micRespv1l2_2023-11-27_12h20.47.819.wav;122.21305819996633;122.71319469995797;None;122.21305819996633;122.21305819996633;122.21305819996633;122.21305819996633;122.21305819996633;122.21305819996633;;;;;;;110102;001;2023-11-27_12h18.52.572;REPSWITCH1_version1_list2;2022.2.4;143.92817420724344;
REPSWITCH1/PICTURE_135.png;traje;type;darkblue;nontarget;1;NT;1;3;2;1;Stim3_Set1;1;switch;23;22;23;0;22;22;22;;;;;;;;;;;;;;;;;;;;;;;122.71319469995797;123.86605880013667;123.86605880013667;123.86605880013667;123.86605880013667;123.86605880013667;123.86605880013667;123.86605880013667;123.86605880013667;['t', 'r', 'a', 'j', 'e'];0;traje;C:\2023\REPSWITCH21092023\REPSWITCH_excgange\REPSWITCH_excgange\data/110102_REPSWITCH1_version1_list2_2023-11-27_12h18.52.572_micRespv1l2_recorded\recording_micRespv1l2_2023-11-27_12h20.52.493.wav;126.88727460009977;127.38737030001357;None;126.88727460009977;126.88727460009977;126.88727460009977;126.88727460009977;126.88727460009977;126.88727460009977;[1.530454599764198, 1.64297919976525, 1.7974902999121696, 2.1383623997680843, 2.208141699898988];;;;;;110102;001;2023-11-27_12h18.52.572;REPSWITCH1_version1_list2;2022.2.4;143.92817420724344;
REPSWITCH1/PICTURE_135.png;traje;type;darkblue;repeat;1;T;1;3;2;1;Stim3_Set1;0;None;24;23;24;0;23;23;23;;;;;;;;;;;;;;;;;;;;;;;127.38737030001357;128.49173999996856;128.49173999996856;128.49173999996856;128.49173999996856;128.49173999996856;128.49173999996856;128.49173999996856;128.49173999996856;['t', 'r', 'a', 'j', 'e'];0;traje;C:\2023\REPSWITCH21092023\REPSWITCH_excgange\REPSWITCH_excgange\data/110102_REPSWITCH1_version1_list2_2023-11-27_12h18.52.572_micRespv1l2_recorded\recording_micRespv1l2_2023-11-27_12h20.57.119.wav;131.51992400013842;;None;131.51992400013842;131.51992400013842;131.51992400013842;131.51992400013842;131.51992400013842;131.51992400013842;[0.9776037998963147, 1.0902262998279184, 1.2405214998871088, 1.5315458998084068, 1.6275645999703556];;;;;;110102;001;2023-11-27_12h18.52.572;REPSWITCH1_version1_list2;2022.2.4;143.92817420724344;
REPSWITCH1/PICTURE_19.png;pavo;type;darkblue;nontarget;1;NT;1;3;2;1;Stim5_Set1;1;repeat;25;24;25;0;24;24;24;;;;;;;;;;;;;;;;;;;;;;;132.01990399998613;133.15893599996343;133.15893599996343;133.15893599996343;133.15893599996343;133.15893599996343;133.15893599996343;133.15893599996343;133.15893599996343;['p', 'a', 'v', 'o'];0;pavo;C:\2023\REPSWITCH21092023\REPSWITCH_excgange\REPSWITCH_excgange\data/110102_REPSWITCH1_version1_list2_2023-11-27_12h18.52.572_micRespv1l2_recorded\recording_micRespv1l2_2023-11-27_12h21.01.788.wav;136.18711029994301;;None;136.18711029994301;136.18711029994301;136.18711029994301;136.18711029994301;136.18711029994301;136.18711029994301;[1.0277349997777492, 1.1426217998377979, 1.3688816998619586, 1.601093899924308];;;;;;110102;001;2023-11-27_12h18.52.572;REPSWITCH1_version1_list2;2022.2.4;143.92817420724344;
REPSWITCH1/PICTURE_19.png;pavo;speak;gold;switch;2;T;1;3;2;1;Stim5_Set1;0;None;26;25;26;0;25;25;25;;;;;;;;;;;;;;;;;;;;;;;136.687184400158;137.7775954999961;137.7775954999961;137.7775954999961;137.7775954999961;137.7775954999961;137.7775954999961;137.7775954999961;137.7775954999961;None;0;;C:\2023\REPSWITCH21092023\REPSWITCH_excgange\REPSWITCH_excgange\data/110102_REPSWITCH1_version1_list2_2023-11-27_12h18.52.572_micRespv1l2_recorded\recording_micRespv1l2_2023-11-27_12h21.06.406.wav;140.80576939997263;;None;140.80576939997263;140.80576939997263;140.80576939997263;140.80576939997263;140.80576939997263;140.80576939997263;;;;;;;110102;001;2023-11-27_12h18.52.572;REPSWITCH1_version1_list2;2022.2.4;143.92817420724344;
REPSWITCH1/PICTURE_142.png;vaso;speak;gold;filler;2;F;2;3;2;1;Stim7_Set1;0;None;27;26;27;0;26;26;26;;;;;;;;;;;;;;;;;;;;;;;141.30592050007544;142.4379388000816;142.4379388000816;142.4379388000816;142.4379388000816;142.4379388000816;142.4379388000816;142.4379388000816;142.4379388000816;None;0;;C:\2023\REPSWITCH21092023\REPSWITCH_excgange\REPSWITCH_excgange\data/110102_REPSWITCH1_version1_list2_2023-11-27_12h18.52.572_micRespv1l2_recorded\recording_micRespv1l2_2023-11-27_12h21.11.065.wav;145.46609610016458;;None;145.46609610016458;145.46609610016458;145.46609610016458;145.46609610016458;145.46609610016458;145.46609610016458;;;;;;;110102;001;2023-11-27_12h18.52.572;REPSWITCH1_version1_list2;2022.2.4;143.92817420724344;
REPSWITCH1/PICTURE_135.png;traje;type;darkblue;filler;1;F;2;3;2;1;Stim3_Set1;0;None;28;27;28;0;27;27;27;;;;;;;;;;;;;;;;;;;;;;;145.96617300016806;147.06353939999826;147.06353939999826;147.06353939999826;147.06353939999826;147.06353939999826;147.06353939999826;147.06353939999826;147.06353939999826;['t', 'r', 'a', 'j', 'e'];0;traje;C:\2023\REPSWITCH21092023\REPSWITCH_excgange\REPSWITCH_excgange\data/110102_REPSWITCH1_version1_list2_2023-11-27_12h18.52.572_micRespv1l2_recorded\recording_micRespv1l2_2023-11-27_12h21.15.691.wav;150.084773800103;150.58484399993904;None;150.084773800103;150.084773800103;150.084773800103;150.084773800103;150.084773800103;150.084773800103;[0.951621999964118, 1.08708729990758, 1.2594911998603493, 1.5634492000099272, 1.6783811999484897];;;;;;110102;001;2023-11-27_12h18.52.572;REPSWITCH1_version1_list2;2022.2.4;143.92817420724344;
REPSWITCH1/PICTURE_446.png;cerdo;type;darkblue;nontarget;1;NT;2;3;2;1;Stim7_Set2;0;None;29;28;29;0;28;28;28;;;;;;;;;;;;;;;;;;;;;;;150.58484399993904;151.68914410006255;151.68914410006255;151.68914410006255;151.68914410006255;151.68914410006255;151.68914410006255;151.68914410006255;151.68914410006255;['c', 'e', 'r', 'd', 'o'];0;cerdo;C:\2023\REPSWITCH21092023\REPSWITCH_excgange\REPSWITCH_excgange\data/110102_REPSWITCH1_version1_list2_2023-11-27_12h18.52.572_micRespv1l2_recorded\recording_micRespv1l2_2023-11-27_12h21.20.317.wav;154.71734010009095;;None;154.71734010009095;154.71734010009095;154.71734010009095;154.71734010009095;154.71734010009095;154.71734010009095;[0.9832792000379413, 1.168713100021705, 1.3201444000005722, 1.5838961999397725, 1.741626099916175];;;;;;110102;001;2023-11-27_12h18.52.572;REPSWITCH1_version1_list2;2022.2.4;143.92817420724344;
REPSWITCH1/PICTURE_446.png;cerdo;type;darkblue;repeat;1;T;2;3;2;1;Stim7_Set2;0;None;30;29;30;0;29;29;29;;;;;;;;;;;;;;;;;;;;;;;155.21739959996194;156.4954087000806;156.4954087000806;156.4954087000806;156.4954087000806;156.4954087000806;156.4954087000806;156.4954087000806;156.4954087000806;['c', 'e', 'r', 'd', 'o'];0;cerdo;C:\2023\REPSWITCH21092023\REPSWITCH_excgange\REPSWITCH_excgange\data/110102_REPSWITCH1_version1_list2_2023-11-27_12h18.52.572_micRespv1l2_recorded\recording_micRespv1l2_2023-11-27_12h21.25.123.wav;159.51654830016196;160.0166367001366;None;159.51654830016196;159.51654830016196;159.51654830016196;159.51654830016196;159.51654830016196;159.51654830016196;[0.8548172998707741, 1.1282631000503898, 1.308500099927187, 1.5766088999807835, 1.7450268999673426];;;;;;110102;001;2023-11-27_12h18.52.572;REPSWITCH1_version1_list2;2022.2.4;143.92817420724344;
REPSWITCH1/PICTURE_16.png;cazador;speak;gold;filler;2;F;2;3;2;1;Stim6_Set1;0;None;31;30;31;0;30;30;30;;;;;;;;;;;;;;;;;;;;;;;160.0166367001366;161.02376470016316;161.02376470016316;161.02376470016316;161.02376470016316;161.02376470016316;161.02376470016316;161.02376470016316;161.02376470016316;None;0;;C:\2023\REPSWITCH21092023\REPSWITCH_excgange\REPSWITCH_excgange\data/110102_REPSWITCH1_version1_list2_2023-11-27_12h18.52.572_micRespv1l2_recorded\recording_micRespv1l2_2023-11-27_12h21.29.653.wav;164.0518704999704;;None;164.0518704999704;164.0518704999704;164.0518704999704;164.0518704999704;164.0518704999704;164.0518704999704;;;;;;;110102;001;2023-11-27_12h18.52.572;REPSWITCH1_version1_list2;2022.2.4;143.92817420724344;
REPSWITCH1/PICTURE_552.png;manzana;type;darkblue;nontarget;1;NT;2;3;2;1;Stim6_Set2;1;switch;32;31;32;0;31;31;31;;;;;;;;;;;;;;;;;;;;;;;164.5519267001655;165.66326940013096;165.66326940013096;165.66326940013096;165.66326940013096;165.66326940013096;165.66326940013096;165.66326940013096;165.66326940013096;['m', 'a', 'n', 'z', 'a', 'n', 'a'];0;manzana;C:\2023\REPSWITCH21092023\REPSWITCH_excgange\REPSWITCH_excgange\data/110102_REPSWITCH1_version1_list2_2023-11-27_12h18.52.572_micRespv1l2_recorded\recording_micRespv1l2_2023-11-27_12h21.34.291.wav;168.69145169993863;;None;168.69145169993863;168.69145169993863;168.69145169993863;168.69145169993863;168.69145169993863;168.69145169993863;[1.1146754999645054, 1.2283317998517305, 1.3648295998573303, 1.61407190002501, 1.7856200998649001, 1.940130400005728, 2.067766899941489];;;;;;110102;001;2023-11-27_12h18.52.572;REPSWITCH1_version1_list2;2022.2.4;143.92817420724344;
REPSWITCH1/PICTURE_552.png;manzana;type;darkblue;repeat;1;T;2;3;2;1;Stim6_Set2;0;None;33;32;33;0;32;32;32;;;;;;;;;;;;;;;;;;;;;;;169.19152470002882;170.44854640006088;170.44854640006088;170.44854640006088;170.44854640006088;170.44854640006088;170.44854640006088;170.44854640006088;170.44854640006088;['m', 'a', 'n', 'a', 'z', 'a', 'backspace'];0;manaz;C:\2023\REPSWITCH21092023\REPSWITCH_excgange\REPSWITCH_excgange\data/110102_REPSWITCH1_version1_list2_2023-11-27_12h18.52.572_micRespv1l2_recorded\recording_micRespv1l2_2023-11-27_12h21.39.076.wav;173.47672610008158;;None;173.47672610008158;173.47672610008158;173.47672610008158;173.47672610008158;173.47672610008158;173.47672610008158;[0.6686470997519791, 0.889870299724862, 1.0048097998369485, 1.127408999716863, 1.3738899996969849, 1.6007850996684283, 2.9257843997329473];;;;;;110102;001;2023-11-27_12h18.52.572;REPSWITCH1_version1_list2;2022.2.4;143.92817420724344;
REPSWITCH1/PICTURE_517.png;cuerda;type;darkblue;nontarget;1;NT;2;3;2;1;Stim4_Set2;0;None;34;33;34;0;33;33;33;;;;;;;;;;;;;;;;;;;;;;;173.9768672999926;175.0741691000294;175.0741691000294;175.0741691000294;175.0741691000294;175.0741691000294;175.0741691000294;175.0741691000294;175.0741691000294;['c', 'u', 'e', 'r', 'd', 'a'];0;cuerda;C:\2023\REPSWITCH21092023\REPSWITCH_excgange\REPSWITCH_excgange\data/110102_REPSWITCH1_version1_list2_2023-11-27_12h18.52.572_micRespv1l2_recorded\recording_micRespv1l2_2023-11-27_12h21.43.702.wav;178.1023421001155;;None;178.1023421001155;178.1023421001155;178.1023421001155;178.1023421001155;178.1023421001155;178.1023421001155;[0.8864409998059273, 1.0180650998372585, 1.1466373999137431, 1.267377199837938, 1.5055802997667342, 1.6332144998013973];;;;;;110102;001;2023-11-27_12h18.52.572;REPSWITCH1_version1_list2;2022.2.4;143.92817420724344;
REPSWITCH1/PICTURE_517.png;cuerda;speak;gold;switch;2;T;2;3;2;1;Stim4_Set2;0;None;35;34;35;0;34;34;34;;;;;;;;;;;;;;;;;;;;;;;178.60239910008386;179.68593000015244;179.68593000015244;179.68593000015244;179.68593000015244;179.68593000015244;179.68593000015244;179.68593000015244;179.68593000015244;None;0;;C:\2023\REPSWITCH21092023\REPSWITCH_excgange\REPSWITCH_excgange\data/110102_REPSWITCH1_version1_list2_2023-11-27_12h18.52.572_micRespv1l2_recorded\recording_micRespv1l2_2023-11-27_12h21.48.313.wav;182.71402950002812;;None;182.71402950002812;182.71402950002812;182.71402950002812;182.71402950002812;182.71402950002812;182.71402950002812;;;;;;;110102;001;2023-11-27_12h18.52.572;REPSWITCH1_version1_list2;2022.2.4;143.92817420724344;
REPSWITCH1/PICTURE_169.png;espalda;speak;gold;filler;2;F;2;3;2;1;Stim8_Set1;1;repeat;36;35;36;0;35;35;35;;;;;;;;;;;;;;;;;;;;;;;183.21409280016087;184.34621410002;184.34621410002;184.34621410002;184.34621410002;184.34621410002;184.34621410002;184.34621410002;184.34621410002;None;0;;C:\2023\REPSWITCH21092023\REPSWITCH_excgange\REPSWITCH_excgange\data/110102_REPSWITCH1_version1_list2_2023-11-27_12h18.52.572_micRespv1l2_recorded\recording_micRespv1l2_2023-11-27_12h21.52.973.wav;187.37438479997218;187.87444080016576;None;187.37438479997218;187.37438479997218;187.37438479997218;187.37438479997218;187.37438479997218;187.37438479997218;;;;;;;110102;001;2023-11-27_12h18.52.572;REPSWITCH1_version1_list2;2022.2.4;143.92817420724344;
REPSWITCH1/PICTURE_30.png;granja;speak;gold;nontarget;2;NT;2;3;2;1;Stim5_Set2;1;repeat;37;36;37;0;36;36;36;;;;;;;;;;;;;;;;;;;;;;;187.87444080016576;188.98572180001065;188.98572180001065;188.98572180001065;188.98572180001065;188.98572180001065;188.98572180001065;188.98572180001065;188.98572180001065;None;0;;C:\2023\REPSWITCH21092023\REPSWITCH_excgange\REPSWITCH_excgange\data/110102_REPSWITCH1_version1_list2_2023-11-27_12h18.52.572_micRespv1l2_recorded\recording_micRespv1l2_2023-11-27_12h21.57.614.wav;192.01385330013;;None;192.01385330013;192.01385330013;192.01385330013;192.01385330013;192.01385330013;192.01385330013;;;;;;;110102;001;2023-11-27_12h18.52.572;REPSWITCH1_version1_list2;2022.2.4;143.92817420724344;
REPSWITCH1/PICTURE_30.png;granja;type;darkblue;switch;1;T;2;3;2;1;Stim5_Set2;0;None;38;37;38;0;37;37;37;;;;;;;;;;;;;;;;;;;;;;;192.5139917000197;193.63910889998078;193.63910889998078;193.63910889998078;193.63910889998078;193.63910889998078;193.63910889998078;193.63910889998078;193.63910889998078;['g', 'r', 'a', 'n', 'j', 'a'];0;granja;C:\2023\REPSWITCH21092023\REPSWITCH_excgange\REPSWITCH_excgange\data/110102_REPSWITCH1_version1_list2_2023-11-27_12h18.52.572_micRespv1l2_recorded\recording_micRespv1l2_2023-11-27_12h22.02.267.wav;196.66727029997855;;None;196.66727029997855;196.66727029997855;196.66727029997855;196.66727029997855;196.66727029997855;196.66727029997855;[0.8496820000000298, 1.035666499985382, 1.21012319996953, 1.4752203999087214, 1.7825134000740945, 1.9063066998496652];;;;;;110102;001;2023-11-27_12h18.52.572;REPSWITCH1_version1_list2;2022.2.4;143.92817420724344;
REPSWITCH1/PICTURE_128.png;muñeca;type;darkblue;filler;1;F;2;3;2;1;Stim4_Set1;1;repeat;39;38;39;0;38;38;38;;;;;;;;;;;;;;;;;;;;;;;197.1673375000246;198.2577580001671;198.2577580001671;198.2577580001671;198.2577580001671;198.2577580001671;198.2577580001671;198.2577580001671;198.2577580001671;['m', 'u', 'ñ', 'e', 'c', 'a'];0;muñeca;C:\2023\REPSWITCH21092023\REPSWITCH_excgange\REPSWITCH_excgange\data/110102_REPSWITCH1_version1_list2_2023-11-27_12h18.52.572_micRespv1l2_recorded\recording_micRespv1l2_2023-11-27_12h22.06.886.wav;201.2858887000475;;None;201.2858887000475;201.2858887000475;201.2858887000475;201.2858887000475;201.2858887000475;201.2858887000475;[0.9224733998999, 1.0900845997966826, 1.5621476999949664, 1.7594916999805719, 2.3823507998604327, 2.485922399908304];;;;;;110102;001;2023-11-27_12h18.52.572;REPSWITCH1_version1_list2;2022.2.4;143.92817420724344;
REPSWITCH1/PICTURE_199.png;falda;type;darkblue;nontarget;1;NT;2;3;2;1;Stim8_Set2;0;None;40;39;40;0;39;39;39;;;;;;;;;;;;;;;;;;;;;;;201.78596729994752;202.85563240014017;202.85563240014017;202.85563240014017;202.85563240014017;202.85563240014017;202.85563240014017;202.85563240014017;202.85563240014017;['f', 'a', 'l', 'd', 'a'];0;falda;C:\2023\REPSWITCH21092023\REPSWITCH_excgange\REPSWITCH_excgange\data/110102_REPSWITCH1_version1_list2_2023-11-27_12h18.52.572_micRespv1l2_recorded\recording_micRespv1l2_2023-11-27_12h22.11.484.wav;205.88381500006653;;None;205.88381500006653;205.88381500006653;205.88381500006653;205.88381500006653;205.88381500006653;205.88381500006653;[1.1366629998665303, 1.325252000009641, 1.4677557998802513, 1.6046849999111146, 1.7182346999179572];;;;;;110102;001;2023-11-27_12h18.52.572;REPSWITCH1_version1_list2;2022.2.4;143.92817420724344;
REPSWITCH1/PICTURE_199.png;falda;speak;gold;switch;2;T;2;3;2;1;Stim8_Set2;0;None;41;40;41;0;40;40;40;;;;;;;;;;;;;;;;;;;;;;;206.38388790003955;207.48124930006452;207.48124930006452;207.48124930006452;207.48124930006452;207.48124930006452;207.48124930006452;207.48124930006452;207.48124930006452;None;0;;C:\2023\REPSWITCH21092023\REPSWITCH_excgange\REPSWITCH_excgange\data/110102_REPSWITCH1_version1_list2_2023-11-27_12h18.52.572_micRespv1l2_recorded\recording_micRespv1l2_2023-11-27_12h22.16.109.wav;210.50943520013243;;None;210.50943520013243;210.50943520013243;210.50943520013243;210.50943520013243;210.50943520013243;210.50943520013243;;;;;;;110102;001;2023-11-27_12h18.52.572;REPSWITCH1_version1_list2;2022.2.4;143.92817420724344;
REPSWITCH1/PICTURE_152.png;caracol;speak;gold;nontarget;2;NT;2;3;2;1;Stim2_Set2;1;switch;42;41;42;0;41;41;41;;;;;;;;;;;;;;;;;;;;;;;211.0094268999528;212.05122520006262;212.05122520006262;212.05122520006262;212.05122520006262;212.05122520006262;212.05122520006262;212.05122520006262;212.05122520006262;None;0;;C:\2023\REPSWITCH21092023\REPSWITCH_excgange\REPSWITCH_excgange\data/110102_REPSWITCH1_version1_list2_2023-11-27_12h18.52.572_micRespv1l2_recorded\recording_micRespv1l2_2023-11-27_12h22.20.679.wav;215.07939820014872;;None;215.07939820014872;215.07939820014872;215.07939820014872;215.07939820014872;215.07939820014872;215.07939820014872;;;;;;;110102;001;2023-11-27_12h18.52.572;REPSWITCH1_version1_list2;2022.2.4;143.92817420724344;
REPSWITCH1/PICTURE_152.png;caracol;speak;gold;repeat;2;T;2;3;2;1;Stim2_Set2;0;None;43;42;43;0;42;42;42;;;;;;;;;;;;;;;;;;;;;;;215.57953860005364;216.69772500009276;216.69772500009276;216.69772500009276;216.69772500009276;216.69772500009276;216.69772500009276;216.69772500009276;216.69772500009276;None;0;;C:\2023\REPSWITCH21092023\REPSWITCH_excgange\REPSWITCH_excgange\data/110102_REPSWITCH1_version1_list2_2023-11-27_12h18.52.572_micRespv1l2_recorded\recording_micRespv1l2_2023-11-27_12h22.25.325.wav;219.72583579993807;;None;219.72583579993807;219.72583579993807;219.72583579993807;219.72583579993807;219.72583579993807;219.72583579993807;;;;;;;110102;001;2023-11-27_12h18.52.572;REPSWITCH1_version1_list2;2022.2.4;143.92817420724344;
REPSWITCH1/PICTURE_381.png;fresa;type;darkblue;filler;1;F;2;3;2;1;Stim2_Set1;0;None;44;43;44;0;43;43;43;;;;;;;;;;;;;;;;;;;;;;;220.22595420014113;221.26079630013555;221.26079630013555;221.26079630013555;221.26079630013555;221.26079630013555;221.26079630013555;221.26079630013555;221.26079630013555;['f', 'r', 'e', 's', 'a'];0;fresa;C:\2023\REPSWITCH21092023\REPSWITCH_excgange\REPSWITCH_excgange\data/110102_REPSWITCH1_version1_list2_2023-11-27_12h18.52.572_micRespv1l2_recorded\recording_micRespv1l2_2023-11-27_12h22.29.888.wav;224.28199900011532;224.78203350002877;None;224.28199900011532;224.28199900011532;224.28199900011532;224.28199900011532;224.28199900011532;224.28199900011532;[1.00253799976781, 1.1689807998482138, 1.2556509997230023, 1.461038899840787, 1.6128692997153848];;;;;;110102;001;2023-11-27_12h18.52.572;REPSWITCH1_version1_list2;2022.2.4;143.92817420724344;
REPSWITCH1/PICTURE_175.png;pintor;speak;gold;nontarget;2;NT;2;3;2;1;Stim1_Set2;1;switch;45;44;45;0;44;44;44;;;;;;;;;;;;;;;;;;;;;;;224.78203350002877;225.83780229999684;225.83780229999684;225.83780229999684;225.83780229999684;225.83780229999684;225.83780229999684;225.83780229999684;225.83780229999684;None;0;;C:\2023\REPSWITCH21092023\REPSWITCH_excgange\REPSWITCH_excgange\data/110102_REPSWITCH1_version1_list2_2023-11-27_12h18.52.572_micRespv1l2_recorded\recording_micRespv1l2_2023-11-27_12h22.34.465.wav;228.8658984999638;;None;228.8658984999638;228.8658984999638;228.8658984999638;228.8658984999638;228.8658984999638;228.8658984999638;;;;;;;110102;001;2023-11-27_12h18.52.572;REPSWITCH1_version1_list2;2022.2.4;143.92817420724344;
REPSWITCH1/PICTURE_175.png;pintor;speak;gold;repeat;2;T;2;3;2;1;Stim1_Set2;0;None;46;45;46;0;45;45;45;;;;;;;;;;;;;;;;;;;;;;;229.365971500054;230.43555660010315;230.43555660010315;230.43555660010315;230.43555660010315;230.43555660010315;230.43555660010315;230.43555660010315;230.43555660010315;None;0;;C:\2023\REPSWITCH21092023\REPSWITCH_excgange\REPSWITCH_excgange\data/110102_REPSWITCH1_version1_list2_2023-11-27_12h18.52.572_micRespv1l2_recorded\recording_micRespv1l2_2023-11-27_12h22.39.063.wav;233.46374929999;;None;233.46374929999;233.46374929999;233.46374929999;233.46374929999;233.46374929999;233.46374929999;;;;;;;110102;001;2023-11-27_12h18.52.572;REPSWITCH1_version1_list2;2022.2.4;143.92817420724344;
REPSWITCH1/PICTURE_178.png;puente;type;darkblue;filler;1;F;2;3;2;1;Stim1_Set1;0;None;47;46;47;0;46;46;46;;;;;;;;;;;;;;;;;;;;;;;233.9638309001457;234.9917451001238;234.9917451001238;234.9917451001238;234.9917451001238;234.9917451001238;234.9917451001238;234.9917451001238;234.9917451001238;['p', 'u', 'e', 'n', 't', 'e'];0;puente;C:\2023\REPSWITCH21092023\REPSWITCH_excgange\REPSWITCH_excgange\data/110102_REPSWITCH1_version1_list2_2023-11-27_12h18.52.572_micRespv1l2_recorded\recording_micRespv1l2_2023-11-27_12h22.43.619.wav;238.0129361001309;238.51299860002473;None;238.0129361001309;238.0129361001309;238.0129361001309;238.0129361001309;238.0129361001309;238.0129361001309;[1.2370885997079313, 1.4234831999056041, 1.5552542998921126, 1.691110499901697, 1.794538299785927, 1.9214459997601807];;;;;;110102;001;2023-11-27_12h18.52.572;REPSWITCH1_version1_list2;2022.2.4;143.92817420724344;
REPSWITCH1/PICTURE_19.png;pavo;speak;gold;filler;2;F;2;3;2;1;Stim5_Set1;0;None;48;47;48;0;47;47;47;;;;;;;;;;;;;;;;;;;;;;;238.51299860002473;239.56873850012198;239.56873850012198;239.56873850012198;239.56873850012198;239.56873850012198;239.56873850012198;239.56873850012198;239.56873850012198;None;0;;C:\2023\REPSWITCH21092023\REPSWITCH_excgange\REPSWITCH_excgange\data/110102_REPSWITCH1_version1_list2_2023-11-27_12h18.52.572_micRespv1l2_recorded\recording_micRespv1l2_2023-11-27_12h22.48.197.wav;242.59685790003277;;None;242.59685790003277;242.59685790003277;242.59685790003277;242.59685790003277;242.59685790003277;242.59685790003277;;;;;;;110102;001;2023-11-27_12h18.52.572;REPSWITCH1_version1_list2;2022.2.4;143.92817420724344;
REPSWITCH1/PICTURE_264.png;mano;speak;gold;nontarget;2;NT;2;3;2;1;Stim3_Set2;1;repeat;49;48;49;0;48;48;48;;;;;;;;;;;;;;;;;;;;;;;243.09693230013363;244.11792660015635;244.11792660015635;244.11792660015635;244.11792660015635;244.11792660015635;244.11792660015635;244.11792660015635;244.11792660015635;None;0;;C:\2023\REPSWITCH21092023\REPSWITCH_excgange\REPSWITCH_excgange\data/110102_REPSWITCH1_version1_list2_2023-11-27_12h18.52.572_micRespv1l2_recorded\recording_micRespv1l2_2023-11-27_12h22.52.745.wav;247.14606539998204;;None;247.14606539998204;247.14606539998204;247.14606539998204;247.14606539998204;247.14606539998204;247.14606539998204;;;;;;;110102;001;2023-11-27_12h18.52.572;REPSWITCH1_version1_list2;2022.2.4;143.92817420724344;
REPSWITCH1/PICTURE_264.png;mano;type;darkblue;switch;1;T;2;3;2;1;Stim3_Set2;0;None;50;49;50;0;49;49;49;;;;;;;;;;;;;;;;;;;;;;;247.64616560004652;248.74351599998772;248.74351599998772;248.74351599998772;248.74351599998772;248.74351599998772;248.74351599998772;248.74351599998772;248.74351599998772;['m', 'a', 'n', 'o'];0;mano;C:\2023\REPSWITCH21092023\REPSWITCH_excgange\REPSWITCH_excgange\data/110102_REPSWITCH1_version1_list2_2023-11-27_12h18.52.572_micRespv1l2_recorded\recording_micRespv1l2_2023-11-27_12h22.57.371.wav;251.76479950011708;252.2648219000548;None;251.76479950011708;251.76479950011708;251.76479950011708;251.76479950011708;251.76479950011708;251.76479950011708;[0.8945423997938633, 1.079915199894458, 1.1815846997778863, 1.3599578998982906];;;;;;110102;001;2023-11-27_12h18.52.572;REPSWITCH1_version1_list2;2022.2.4;143.92817420724344;
REPSWITCH1/PICTURE_446.png;cerdo;type;darkblue;filler;1;F;3;3;2;1;Stim7_Set2;0;None;51;50;51;0;50;50;50;;;;;;;;;;;;;;;;;;;;;;;252.2648219000548;253.38998940004967;253.38998940004967;253.38998940004967;253.38998940004967;253.38998940004967;253.38998940004967;253.38998940004967;253.38998940004967;['c', 'e', 'r', 'd', 'o'];0;cerdo;C:\2023\REPSWITCH21092023\REPSWITCH_excgange\REPSWITCH_excgange\data/110102_REPSWITCH1_version1_list2_2023-11-27_12h18.52.572_micRespv1l2_recorded\recording_micRespv1l2_2023-11-27_12h23.02.018.wav;256.41127440007403;256.9112748999614;space;256.41127440007403;256.41127440007403;256.41127440007403;256.41127440007403;256.41127440007403;256.41127440007403;[0.8766522998921573, 1.0819591998588294, 1.312245799927041, 1.529939099913463, 1.6824913998134434];256.9112748999614;256.9112748999614;10.967644399730489;;;110102;001;2023-11-27_12h18.52.572;REPSWITCH1_version1_list2;2022.2.4;143.92817420724344;
REPSWITCH1/PICTURE_235.png;aguja;type;darkblue;nontarget;1;NT;3;3;2;1;Stim4_Set3;1;repeat;52;51;52;0;51;51;51;;;;;;;;;;;;;;;;;;;;;;;267.89184770011343;268.9683883001562;268.9683883001562;268.9683883001562;268.9683883001562;268.9683883001562;268.9683883001562;268.9683883001562;268.9683883001562;['a', 'g', 'u', 'j', 'a'];0;aguja;C:\2023\REPSWITCH21092023\REPSWITCH_excgange\REPSWITCH_excgange\data/110102_REPSWITCH1_version1_list2_2023-11-27_12h18.52.572_micRespv1l2_recorded\recording_micRespv1l2_2023-11-27_12h23.17.597.wav;271.9965644001495;;None;271.9965644001495;271.9965644001495;271.9965644001495;271.9965644001495;271.9965644001495;271.9965644001495;[1.1481218996923417, 1.7685305997729301, 1.8622914997395128, 2.0535352998413146, 2.140269799856469];;;;;;110102;001;2023-11-27_12h18.52.572;REPSWITCH1_version1_list2;2022.2.4;143.92817420724344;
REPSWITCH1/PICTURE_235.png;aguja;speak;gold;switch;2;T;3;3;2;1;Stim4_Set3;0;None;53;52;53;0;52;52;52;;;;;;;;;;;;;;;;;;;;;;;272.496637100121;273.62878270004876;273.62878270004876;273.62878270004876;273.62878270004876;273.62878270004876;273.62878270004876;273.62878270004876;273.62878270004876;None;0;;C:\2023\REPSWITCH21092023\REPSWITCH_excgange\REPSWITCH_excgange\data/110102_REPSWITCH1_version1_list2_2023-11-27_12h18.52.572_micRespv1l2_recorded\recording_micRespv1l2_2023-11-27_12h23.22.257.wav;276.65686680004;;None;276.65686680004;276.65686680004;276.65686680004;276.65686680004;276.65686680004;276.65686680004;;;;;;;110102;001;2023-11-27_12h18.52.572;REPSWITCH1_version1_list2;2022.2.4;143.92817420724344;
REPSWITCH1/PICTURE_552.png;manzana;speak;gold;filler;2;F;3;3;2;1;Stim6_Set2;0;None;54;53;54;0;53;53;53;;;;;;;;;;;;;;;;;;;;;;;277.15693830000237;278.2404289999977;278.2404289999977;278.2404289999977;278.2404289999977;278.2404289999977;278.2404289999977;278.2404289999977;278.2404289999977;None;0;;C:\2023\REPSWITCH21092023\REPSWITCH_excgange\REPSWITCH_excgange\data/110102_REPSWITCH1_version1_list2_2023-11-27_12h18.52.572_micRespv1l2_recorded\recording_micRespv1l2_2023-11-27_12h23.26.868.wav;281.2686263001524;;None;281.2686263001524;281.2686263001524;281.2686263001524;281.2686263001524;281.2686263001524;281.2686263001524;;;;;;;110102;001;2023-11-27_12h18.52.572;REPSWITCH1_version1_list2;2022.2.4;143.92817420724344;
REPSWITCH1/PICTURE_271.png;conejo;speak;gold;nontarget;2;NT;3;3;2;1;Stim7_Set3;1;repeat;55;54;55;0;54;54;54;;;;;;;;;;;;;;;;;;;;;;;281.7686736001633;282.8660307000391;282.8660307000391;282.8660307000391;282.8660307000391;282.8660307000391;282.8660307000391;282.8660307000391;282.8660307000391;None;0;;C:\2023\REPSWITCH21092023\REPSWITCH_excgange\REPSWITCH_excgange\data/110102_REPSWITCH1_version1_list2_2023-11-27_12h18.52.572_micRespv1l2_recorded\recording_micRespv1l2_2023-11-27_12h23.31.493.wav;285.8872825000435;286.38734870008193;None;285.8872825000435;285.8872825000435;285.8872825000435;285.8872825000435;285.8872825000435;285.8872825000435;;;;;;;110102;001;2023-11-27_12h18.52.572;REPSWITCH1_version1_list2;2022.2.4;143.92817420724344;
REPSWITCH1/PICTURE_271.png;conejo;type;darkblue;switch;1;T;3;3;2;1;Stim7_Set3;0;None;56;55;56;0;55;55;55;;;;;;;;;;;;;;;;;;;;;;;286.38734870008193;287.491723400075;287.491723400075;287.491723400075;287.491723400075;287.491723400075;287.491723400075;287.491723400075;287.491723400075;['c', 'o', 'n', 'e', 'j', 'o'];0;conejo;C:\2023\REPSWITCH21092023\REPSWITCH_excgange\REPSWITCH_excgange\data/110102_REPSWITCH1_version1_list2_2023-11-27_12h18.52.572_micRespv1l2_recorded\recording_micRespv1l2_2023-11-27_12h23.36.120.wav;290.51987339998595;;None;290.51987339998595;290.51987339998595;290.51987339998595;290.51987339998595;290.51987339998595;290.51987339998595;[0.9394900999031961, 1.1058935998007655, 1.2381710999179631, 1.3757665997836739, 1.568116599926725, 1.697634199867025];;;;;;110102;001;2023-11-27_12h18.52.572;REPSWITCH1_version1_list2;2022.2.4;143.92817420724344;
REPSWITCH1/PICTURE_610.png;miel;type;darkblue;nontarget;1;NT;3;3;2;1;Stim2_Set3;1;repeat;57;56;57;0;56;56;56;;;;;;;;;;;;;;;;;;;;;;;291.0198759001214;292.16588969994336;292.16588969994336;292.16588969994336;292.16588969994336;292.16588969994336;292.16588969994336;292.16588969994336;292.16588969994336;['m', 'i', 'e', 'l'];0;miel;C:\2023\REPSWITCH21092023\REPSWITCH_excgange\REPSWITCH_excgange\data/110102_REPSWITCH1_version1_list2_2023-11-27_12h18.52.572_micRespv1l2_recorded\recording_micRespv1l2_2023-11-27_12h23.40.794.wav;295.1870757001452;295.6871746999677;None;295.1870757001452;295.1870757001452;295.1870757001452;295.1870757001452;295.1870757001452;295.1870757001452;[1.0334315998479724, 1.1486272998154163, 1.2693697998765856, 1.3879658998921514];;;;;;110102;001;2023-11-27_12h18.52.572;REPSWITCH1_version1_list2;2022.2.4;143.92817420724344;
REPSWITCH1/PICTURE_610.png;miel;speak;gold;switch;2;T;3;3;2;1;Stim2_Set3;0;None;58;57;58;0;57;57;57;;;;;;;;;;;;;;;;;;;;;;;295.6871746999677;296.79150840011425;296.79150840011425;296.79150840011425;296.79150840011425;296.79150840011425;296.79150840011425;296.79150840011425;296.79150840011425;None;0;;C:\2023\REPSWITCH21092023\REPSWITCH_excgange\REPSWITCH_excgange\data/110102_REPSWITCH1_version1_list2_2023-11-27_12h18.52.572_micRespv1l2_recorded\recording_micRespv1l2_2023-11-27_12h23.45.419.wav;299.81279690004885;300.3127813001629;None;299.81279690004885;299.81279690004885;299.81279690004885;299.81279690004885;299.81279690004885;299.81279690004885;;;;;;;110102;001;2023-11-27_12h18.52.572;REPSWITCH1_version1_list2;2022.2.4;143.92817420724344;
REPSWITCH1/PICTURE_199.png;falda;type;darkblue;filler;1;F;3;3;2;1;Stim8_Set2;0;None;59;58;59;0;58;58;58;;;;;;;;;;;;;;;;;;;;;;;300.3127813001629;301.40318859997205;301.40318859997205;301.40318859997205;301.40318859997205;301.40318859997205;301.40318859997205;301.40318859997205;301.40318859997205;['f', 'a', 'l', 'd', 'a'];0;falda;C:\2023\REPSWITCH21092023\REPSWITCH_excgange\REPSWITCH_excgange\data/110102_REPSWITCH1_version1_list2_2023-11-27_12h18.52.572_micRespv1l2_recorded\recording_micRespv1l2_2023-11-27_12h23.50.030.wav;304.42439360008575;304.9245003000833;None;304.42439360008575;304.42439360008575;304.42439360008575;304.42439360008575;304.42439360008575;304.42439360008575;[0.9048527998384088, 1.0593375999014825, 1.1938796998001635, 1.3195165998768061, 1.4619995998218656];;;;;;110102;001;2023-11-27_12h18.52.572;REPSWITCH1_version1_list2;2022.2.4;143.92817420724344;
REPSWITCH1/PICTURE_464.png;goma;speak;gold;nontarget;2;NT;3;3;2;1;Stim6_Set3;1;switch;60;59;60;0;59;59;59;;;;;;;;;;;;;;;;;;;;;;;304.9245003000833;306.0149034000933;306.0149034000933;306.0149034000933;306.0149034000933;306.0149034000933;306.0149034000933;306.0149034000933;306.0149034000933;None;0;;C:\2023\REPSWITCH21092023\REPSWITCH_excgange\REPSWITCH_excgange\data/110102_REPSWITCH1_version1_list2_2023-11-27_12h18.52.572_micRespv1l2_recorded\recording_micRespv1l2_2023-11-27_12h23.54.643.wav;309.0430894000456;;None;309.0430894000456;309.0430894000456;309.0430894000456;309.0430894000456;309.0430894000456;309.0430894000456;;;;;;;110102;001;2023-11-27_12h18.52.572;REPSWITCH1_version1_list2;2022.2.4;143.92817420724344;
REPSWITCH1/PICTURE_464.png;goma;speak;gold;repeat;2;T;3;3;2;1;Stim6_Set3;0;None;61;60;61;0;60;60;60;;;;;;;;;;;;;;;;;;;;;;;309.5431572999805;310.68914020014927;310.68914020014927;310.68914020014927;310.68914020014927;310.68914020014927;310.68914020014927;310.68914020014927;310.68914020014927;None;0;;C:\2023\REPSWITCH21092023\REPSWITCH_excgange\REPSWITCH_excgange\data/110102_REPSWITCH1_version1_list2_2023-11-27_12h18.52.572_micRespv1l2_recorded\recording_micRespv1l2_2023-11-27_12h23.59.316.wav;313.71037650015205;314.21044269995764;None;313.71037650015205;313.71037650015205;313.71037650015205;313.71037650015205;313.71037650015205;313.71037650015205;;;;;;;110102;001;2023-11-27_12h18.52.572;REPSWITCH1_version1_list2;2022.2.4;143.92817420724344;
REPSWITCH1/PICTURE_152.png;caracol;type;darkblue;filler;1;F;3;3;2;1;Stim2_Set2;0;None;62;61;62;0;61;61;61;;;;;;;;;;;;;;;;;;;;;;;314.21044269995764;315.2522235000506;315.2522235000506;315.2522235000506;315.2522235000506;315.2522235000506;315.2522235000506;315.2522235000506;315.2522235000506;['c', 'a', 'r', 'a', 'c', 'l', 'backspace'];0;carac;C:\2023\REPSWITCH21092023\REPSWITCH_excgange\REPSWITCH_excgange\data/110102_REPSWITCH1_version1_list2_2023-11-27_12h18.52.572_micRespv1l2_recorded\recording_micRespv1l2_2023-11-27_12h24.03.880.wav;318.2734595001675;318.77353899995796;None;318.2734595001675;318.2734595001675;318.2734595001675;318.2734595001675;318.2734595001675;318.2734595001675;[1.0273784999735653, 1.1997905999887735, 1.3343426999635994, 1.4808633998036385, 1.6233892999589443, 1.9092409999575466, 2.970180599950254];;;;;;110102;001;2023-11-27_12h18.52.572;REPSWITCH1_version1_list2;2022.2.4;143.92817420724344;
REPSWITCH1/PICTURE_320.png;iglesia;speak;gold;nontarget;2;NT;3;3;2;1;Stim8_Set3;1;switch;63;62;63;0;62;62;62;;;;;;;;;;;;;;;;;;;;;;;318.77353899995796;319.9472845001146;319.9472845001146;319.9472845001146;319.9472845001146;319.9472845001146;319.9472845001146;319.9472845001146;319.9472845001146;None;0;;C:\2023\REPSWITCH21092023\REPSWITCH_excgange\REPSWITCH_excgange\data/110102_REPSWITCH1_version1_list2_2023-11-27_12h18.52.572_micRespv1l2_recorded\recording_micRespv1l2_2023-11-27_12h24.08.576.wav;322.97553860000335;;None;322.97553860000335;322.97553860000335;322.97553860000335;322.97553860000335;322.97553860000335;322.97553860000335;;;;;;;110102;001;2023-11-27_12h18.52.572;REPSWITCH1_version1_list2;2022.2.4;143.92817420724344;
REPSWITCH1/PICTURE_320.png;iglesia;speak;gold;repeat;2;T;3;3;2;1;Stim8_Set3;0;None;64;63;64;0;63;63;63;;;;;;;;;;;;;;;;;;;;;;;323.4755382000003;324.5103802999947;324.5103802999947;324.5103802999947;324.5103802999947;324.5103802999947;324.5103802999947;324.5103802999947;324.5103802999947;None;0;;C:\2023\REPSWITCH21092023\REPSWITCH_excgange\REPSWITCH_excgange\data/110102_REPSWITCH1_version1_list2_2023-11-27_12h18.52.572_micRespv1l2_recorded\recording_micRespv1l2_2023-11-27_12h24.13.138.wav;327.5386359000113;;None;327.5386359000113;327.5386359000113;327.5386359000113;327.5386359000113;327.5386359000113;327.5386359000113;;;;;;;110102;001;2023-11-27_12h18.52.572;REPSWITCH1_version1_list2;2022.2.4;143.92817420724344;
REPSWITCH1/PICTURE_35.png;oreja;speak;gold;nontarget;2;NT;3;3;2;1;Stim5_Set3;0;None;65;64;65;0;64;64;64;;;;;;;;;;;;;;;;;;;;;;;328.0386222000234;329.0805019000545;329.0805019000545;329.0805019000545;329.0805019000545;329.0805019000545;329.0805019000545;329.0805019000545;329.0805019000545;None;0;;C:\2023\REPSWITCH21092023\REPSWITCH_excgange\REPSWITCH_excgange\data/110102_REPSWITCH1_version1_list2_2023-11-27_12h18.52.572_micRespv1l2_recorded\recording_micRespv1l2_2023-11-27_12h24.17.708.wav;332.1086149001494;;None;332.1086149001494;332.1086149001494;332.1086149001494;332.1086149001494;332.1086149001494;332.1086149001494;;;;;;;110102;001;2023-11-27_12h18.52.572;REPSWITCH1_version1_list2;2022.2.4;143.92817420724344;
REPSWITCH1/PICTURE_35.png;oreja;type;darkblue;switch;1;T;3;3;2;1;Stim5_Set3;0;None;66;65;66;0;65;65;65;;;;;;;;;;;;;;;;;;;;;;;332.6086840000935;333.6574140000157;333.6574140000157;333.6574140000157;333.6574140000157;333.6574140000157;333.6574140000157;333.6574140000157;333.6574140000157;['o', 'r', 'e', 'j', 'a'];0;oreja;C:\2023\REPSWITCH21092023\REPSWITCH_excgange\REPSWITCH_excgange\data/110102_REPSWITCH1_version1_list2_2023-11-27_12h18.52.572_micRespv1l2_recorded\recording_micRespv1l2_2023-11-27_12h24.22.286.wav;336.68559160013683;;None;336.68559160013683;336.68559160013683;336.68559160013683;336.68559160013683;336.68559160013683;336.68559160013683;[0.9116177998948842, 1.0913533999118954, 1.21899459999986, 1.3564653999637812, 1.4800515999086201];;;;;;110102;001;2023-11-27_12h18.52.572;REPSWITCH1_version1_list2;2022.2.4;143.92817420724344;
REPSWITCH1/PICTURE_517.png;cuerda;speak;gold;filler;2;F;3;3;2;1;Stim4_Set2;0;None;67;66;67;0;66;66;66;;;;;;;;;;;;;;;;;;;;;;;337.18567380006425;338.2969146000687;338.2969146000687;338.2969146000687;338.2969146000687;338.2969146000687;338.2969146000687;338.2969146000687;338.2969146000687;None;0;;C:\2023\REPSWITCH21092023\REPSWITCH_excgange\REPSWITCH_excgange\data/110102_REPSWITCH1_version1_list2_2023-11-27_12h18.52.572_micRespv1l2_recorded\recording_micRespv1l2_2023-11-27_12h24.26.924.wav;341.31813520006835;341.81828090013005;None;341.31813520006835;341.31813520006835;341.31813520006835;341.31813520006835;341.31813520006835;341.31813520006835;;;;;;;110102;001;2023-11-27_12h18.52.572;REPSWITCH1_version1_list2;2022.2.4;143.92817420724344;
REPSWITCH1/PICTURE_30.png;granja;type;darkblue;filler;1;F;3;3;2;1;Stim5_Set2;1;switch;68;67;68;0;67;67;67;;;;;;;;;;;;;;;;;;;;;;;341.81828090013005;342.9781514001079;342.9781514001079;342.9781514001079;342.9781514001079;342.9781514001079;342.9781514001079;342.9781514001079;342.9781514001079;['g', 'r', 'q', 'a', 'n', 'backspace', 'backspace', 'backspace'];0;gr;C:\2023\REPSWITCH21092023\REPSWITCH_excgange\REPSWITCH_excgange\data/110102_REPSWITCH1_version1_list2_2023-11-27_12h18.52.572_micRespv1l2_recorded\recording_micRespv1l2_2023-11-27_12h24.31.607.wav;346.00628460012376;346.5063360000495;None;346.00628460012376;346.00628460012376;346.00628460012376;346.00628460012376;346.00628460012376;346.00628460012376;[0.9827411998994648, 1.1621405999176204, 1.291828699875623, 1.4538257999811321, 1.7179757000412792, 2.5157256999518722, 2.6682211998850107, 2.8087418999057263];;;;;;110102;001;2023-11-27_12h18.52.572;REPSWITCH1_version1_list2;2022.2.4;143.92817420724344;
REPSWITCH1/PICTURE_242.png;cartero;type;darkblue;nontarget;1;NT;3;3;2;1;Stim3_Set3;0;None;69;68;69;0;68;68;68;;;;;;;;;;;;;;;;;;;;;;;346.5063360000495;347.61066700005904;347.61066700005904;347.61066700005904;347.61066700005904;347.61066700005904;347.61066700005904;347.61066700005904;347.61066700005904;['c', 'a', 'r', 't', 'e', 'r', 'o'];0;cartero;C:\2023\REPSWITCH21092023\REPSWITCH_excgange\REPSWITCH_excgange\data/110102_REPSWITCH1_version1_list2_2023-11-27_12h18.52.572_micRespv1l2_recorded\recording_micRespv1l2_2023-11-27_12h24.36.238.wav;350.6388336000964;351.1388612999581;None;350.6388336000964;350.6388336000964;350.6388336000964;350.6388336000964;350.6388336000964;350.6388336000964;[0.8861984997056425, 1.053584799868986, 1.1632156998384744, 1.348197299754247, 1.427995199803263, 1.6273250996600837, 1.7867812998592854];;;;;;110102;001;2023-11-27_12h18.52.572;REPSWITCH1_version1_list2;2022.2.4;143.92817420724344;
REPSWITCH1/PICTURE_242.png;cartero;type;darkblue;repeat;1;T;3;3;2;1;Stim3_Set3;0;None;70;69;70;0;69;69;69;;;;;;;;;;;;;;;;;;;;;;;351.1388612999581;352.25016760011204;352.25016760011204;352.25016760011204;352.25016760011204;352.25016760011204;352.25016760011204;352.25016760011204;352.25016760011204;['c', 'a', 'r', 't', 'e', 'r', 'o'];0;cartero;C:\2023\REPSWITCH21092023\REPSWITCH_excgange\REPSWITCH_excgange\data/110102_REPSWITCH1_version1_list2_2023-11-27_12h18.52.572_micRespv1l2_recorded\recording_micRespv1l2_2023-11-27_12h24.40.878.wav;355.27827939996496;;None;355.27827939996496;355.27827939996496;355.27827939996496;355.27827939996496;355.27827939996496;355.27827939996496;[0.7369442998897284, 0.9153403998352587, 1.0070319997612387, 1.122826499864459, 1.2783031999133527, 1.4258041998837143, 1.5544604999013245];;;;;;110102;001;2023-11-27_12h18.52.572;REPSWITCH1_version1_list2;2022.2.4;143.92817420724344;
REPSWITCH1/PICTURE_264.png;mano;speak;gold;filler;2;F;3;3;2;1;Stim3_Set2;1;switch;71;70;71;0;70;70;70;;;;;;;;;;;;;;;;;;;;;;;355.778380200034;356.89659660006873;356.89659660006873;356.89659660006873;356.89659660006873;356.89659660006873;356.89659660006873;356.89659660006873;356.89659660006873;None;0;;C:\2023\REPSWITCH21092023\REPSWITCH_excgange\REPSWITCH_excgange\data/110102_REPSWITCH1_version1_list2_2023-11-27_12h18.52.572_micRespv1l2_recorded\recording_micRespv1l2_2023-11-27_12h24.45.524.wav;359.9177942001261;360.4178394000046;None;359.9177942001261;359.9177942001261;359.9177942001261;359.9177942001261;359.9177942001261;359.9177942001261;;;;;;;110102;001;2023-11-27_12h18.52.572;REPSWITCH1_version1_list2;2022.2.4;143.92817420724344;
REPSWITCH1/PICTURE_576.png;guante;type;darkblue;nontarget;1;NT;3;3;2;1;Stim1_Set3;1;switch;72;71;72;0;71;71;71;;;;;;;;;;;;;;;;;;;;;;;360.4178394000046;361.5082870000042;361.5082870000042;361.5082870000042;361.5082870000042;361.5082870000042;361.5082870000042;361.5082870000042;361.5082870000042;['g', 'u', 'a', 'n', 't', 'e'];0;guante;C:\2023\REPSWITCH21092023\REPSWITCH_excgange\REPSWITCH_excgange\data/110102_REPSWITCH1_version1_list2_2023-11-27_12h18.52.572_micRespv1l2_recorded\recording_micRespv1l2_2023-11-27_12h24.50.136.wav;364.5364797001239;;None;364.5364797001239;364.5364797001239;364.5364797001239;364.5364797001239;364.5364797001239;364.5364797001239;[0.9642294000368565, 1.0901635999325663, 1.418446899857372, 1.546377999940887, 1.7596303999889642, 1.8941907999105752];;;;;;110102;001;2023-11-27_12h18.52.572;REPSWITCH1_version1_list2;2022.2.4;143.92817420724344;
REPSWITCH1/PICTURE_576.png;guante;type;darkblue;repeat;1;T;3;3;2;1;Stim1_Set3;0;None;73;72;73;0;72;72;72;;;;;;;;;;;;;;;;;;;;;;;365.0366144001018;366.1616678000428;366.1616678000428;366.1616678000428;366.1616678000428;366.1616678000428;366.1616678000428;366.1616678000428;366.1616678000428;['g', 'u', 'a', 'n', 't', 'e'];0;guante;C:\2023\REPSWITCH21092023\REPSWITCH_excgange\REPSWITCH_excgange\data/110102_REPSWITCH1_version1_list2_2023-11-27_12h18.52.572_micRespv1l2_recorded\recording_micRespv1l2_2023-11-27_12h24.54.789.wav;369.1828934000805;369.6829437999986;None;369.1828934000805;369.1828934000805;369.1828934000805;369.1828934000805;369.1828934000805;369.1828934000805;[0.8750014998950064, 0.9966563999187201, 1.1311454998794943, 1.2786553998012096, 1.4702441999688745, 1.6031594998203218];;;;;;110102;001;2023-11-27_12h18.52.572;REPSWITCH1_version1_list2;2022.2.4;143.92817420724344;
REPSWITCH1/PICTURE_175.png;pintor;speak;gold;filler;2;F;3;3;2;1;Stim1_Set2;0;None;74;73;74;0;73;73;73;;;;;;;;;;;;;;;;;;;;;;;369.6829437999986;370.76643940014765;370.76643940014765;370.76643940014765;370.76643940014765;370.76643940014765;370.76643940014765;370.76643940014765;370.76643940014765;None;0;;C:\2023\REPSWITCH21092023\REPSWITCH_excgange\REPSWITCH_excgange\data/110102_REPSWITCH1_version1_list2_2023-11-27_12h18.52.572_micRespv1l2_recorded\recording_micRespv1l2_2023-11-27_12h24.59.394.wav;373.79462760011666;;None;373.79462760011666;373.79462760011666;373.79462760011666;373.79462760011666;373.79462760011666;373.79462760011666;;;;;;;110102;001;2023-11-27_12h18.52.572;REPSWITCH1_version1_list2;2022.2.4;143.92817420724344;
REPSWITCH1/PICTURE_498.png;taza;type;darkblue;nontarget;1;NT;4;3;2;1;Stim4_Set4;0;None;75;74;75;0;74;74;74;;;;;;;;;;;;;;;;;;;;;;;374.2946979000699;375.3851034999825;375.3851034999825;375.3851034999825;375.3851034999825;375.3851034999825;375.3851034999825;375.3851034999825;375.3851034999825;['t', 'a', 'z', 'a'];0;taza;C:\2023\REPSWITCH21092023\REPSWITCH_excgange\REPSWITCH_excgange\data/110102_REPSWITCH1_version1_list2_2023-11-27_12h18.52.572_micRespv1l2_recorded\recording_micRespv1l2_2023-11-27_12h25.04.012.wav;378.4063429001253;378.9064025001135;None;378.4063429001253;378.4063429001253;378.4063429001253;378.4063429001253;378.4063429001253;378.4063429001253;[0.8572172997519374, 1.0005648997612298, 1.1441115997731686, 1.2517196999397129];;;;;;110102;001;2023-11-27_12h18.52.572;REPSWITCH1_version1_list2;2022.2.4;143.92817420724344;
REPSWITCH1/PICTURE_498.png;taza;type;darkblue;repeat;1;T;4;3;2;1;Stim4_Set4;0;None;76;75;76;0;75;75;75;;;;;;;;;;;;;;;;;;;;;;;378.9064025001135;379.9482414999511;379.9482414999511;379.9482414999511;379.9482414999511;379.9482414999511;379.9482414999511;379.9482414999511;379.9482414999511;['t', 'a', 'z', 'a'];0;taza;C:\2023\REPSWITCH21092023\REPSWITCH_excgange\REPSWITCH_excgange\data/110102_REPSWITCH1_version1_list2_2023-11-27_12h18.52.572_micRespv1l2_recorded\recording_micRespv1l2_2023-11-27_12h25.08.576.wav;382.9694497999735;383.46951339999214;None;382.9694497999735;382.9694497999735;382.9694497999735;382.9694497999735;382.9694497999735;382.9694497999735;[0.7149267997592688, 0.8314957998227328, 0.9501411998644471, 1.054893999826163];;;;;;110102;001;2023-11-27_12h18.52.572;REPSWITCH1_version1_list2;2022.2.4;143.92817420724344;
REPSWITCH1/PICTURE_235.png;aguja;speak;gold;filler;2;F;4;3;2;1;Stim4_Set3;0;None;77;76;77;0;76;76;76;;;;;;;;;;;;;;;;;;;;;;;383.46951339999214;384.5321365001146;384.5321365001146;384.5321365001146;384.5321365001146;384.5321365001146;384.5321365001146;384.5321365001146;384.5321365001146;None;0;;C:\2023\REPSWITCH21092023\REPSWITCH_excgange\REPSWITCH_excgange\data/110102_REPSWITCH1_version1_list2_2023-11-27_12h18.52.572_micRespv1l2_recorded\recording_micRespv1l2_2023-11-27_12h25.13.160.wav;387.5533831000794;388.0534469000995;None;387.5533831000794;387.5533831000794;387.5533831000794;387.5533831000794;387.5533831000794;387.5533831000794;;;;;;;110102;001;2023-11-27_12h18.52.572;REPSWITCH1_version1_list2;2022.2.4;143.92817420724344;
REPSWITCH1/PICTURE_338.png;regalo;type;darkblue;nontarget;1;NT;4;3;2;1;Stim6_Set4;1;switch;78;77;78;0;77;77;77;;;;;;;;;;;;;;;;;;;;;;;388.0534469000995;389.2202753999736;389.2202753999736;389.2202753999736;389.2202753999736;389.2202753999736;389.2202753999736;389.2202753999736;389.2202753999736;['r', 'e', 'g', 'a', 'l', 'o'];0;regalo;C:\2023\REPSWITCH21092023\REPSWITCH_excgange\REPSWITCH_excgange\data/110102_REPSWITCH1_version1_list2_2023-11-27_12h18.52.572_micRespv1l2_recorded\recording_micRespv1l2_2023-11-27_12h25.17.848.wav;392.2414953999687;392.74163549998775;None;392.2414953999687;392.2414953999687;392.2414953999687;392.2414953999687;392.2414953999687;392.2414953999687;[1.0009367999155074, 1.1045582999940962, 1.2461155999917537, 1.4434531000442803, 1.6321509000845253, 1.812810800038278];;;;;;110102;001;2023-11-27_12h18.52.572;REPSWITCH1_version1_list2;2022.2.4;143.92817420724344;
REPSWITCH1/PICTURE_338.png;regalo;speak;gold;switch;2;T;4;3;2;1;Stim6_Set4;0;None;79;78;79;0;78;78;78;;;;;;;;;;;;;;;;;;;;;;;392.74163549998775;393.7833420999814;393.7833420999814;393.7833420999814;393.7833420999814;393.7833420999814;393.7833420999814;393.7833420999814;393.7833420999814;None;0;;C:\2023\REPSWITCH21092023\REPSWITCH_excgange\REPSWITCH_excgange\data/110102_REPSWITCH1_version1_list2_2023-11-27_12h18.52.572_micRespv1l2_recorded\recording_micRespv1l2_2023-11-27_12h25.22.412.wav;396.81161350011826;;None;396.81161350011826;396.81161350011826;396.81161350011826;396.81161350011826;396.81161350011826;396.81161350011826;;;;;;;110102;001;2023-11-27_12h18.52.572;REPSWITCH1_version1_list2;2022.2.4;143.92817420724344;
REPSWITCH1/PICTURE_719.png;baño;speak;gold;nontarget;2;NT;4;3;2;1;Stim2_Set4;1;repeat;80;79;80;0;79;79;79;;;;;;;;;;;;;;;;;;;;;;;397.3116075999569;398.47844910016283;398.47844910016283;398.47844910016283;398.47844910016283;398.47844910016283;398.47844910016283;398.47844910016283;398.47844910016283;None;0;;C:\2023\REPSWITCH21092023\REPSWITCH_excgange\REPSWITCH_excgange\data/110102_REPSWITCH1_version1_list2_2023-11-27_12h18.52.572_micRespv1l2_recorded\recording_micRespv1l2_2023-11-27_12h25.27.106.wav;401.4996766000986;401.99972130008973;None;401.4996766000986;401.4996766000986;401.4996766000986;401.4996766000986;401.4996766000986;401.4996766000986;;;;;;;110102;001;2023-11-27_12h18.52.572;REPSWITCH1_version1_list2;2022.2.4;143.92817420724344;
REPSWITCH1/PICTURE_719.png;baño;speak;gold;repeat;2;T;4;3;2;1;Stim2_Set4;0;None;81;80;81;0;80;80;80;;;;;;;;;;;;;;;;;;;;;;;401.99972130008973;403.180438300129;403.180438300129;403.180438300129;403.180438300129;403.180438300129;403.180438300129;403.180438300129;403.180438300129;None;0;;C:\2023\REPSWITCH21092023\REPSWITCH_excgange\REPSWITCH_excgange\data/110102_REPSWITCH1_version1_list2_2023-11-27_12h18.52.572_micRespv1l2_recorded\recording_micRespv1l2_2023-11-27_12h25.31.807.wav;406.20165690011345;406.70179189997725;None;406.20165690011345;406.20165690011345;406.20165690011345;406.20165690011345;406.20165690011345;406.20165690011345;;;;;;;110102;001;2023-11-27_12h18.52.572;REPSWITCH1_version1_list2;2022.2.4;143.92817420724344;
REPSWITCH1/PICTURE_271.png;conejo;type;darkblue;filler;1;F;4;3;2;1;Stim7_Set3;0;None;82;81;82;0;81;81;81;;;;;;;;;;;;;;;;;;;;;;;406.70179189997725;407.71573209995404;407.71573209995404;407.71573209995404;407.71573209995404;407.71573209995404;407.71573209995404;407.71573209995404;407.71573209995404;['c', 'o', 'n', 'e', 'j', 'o'];0;conejo;C:\2023\REPSWITCH21092023\REPSWITCH_excgange\REPSWITCH_excgange\data/110102_REPSWITCH1_version1_list2_2023-11-27_12h18.52.572_micRespv1l2_recorded\recording_micRespv1l2_2023-11-27_12h25.36.343.wav;410.73695160006173;411.23704669997096;None;410.73695160006173;410.73695160006173;410.73695160006173;410.73695160006173;410.73695160006173;410.73695160006173;[1.000453099841252, 1.1648611996788532, 1.3101786996703595, 1.4620040997397155, 1.6129357998725027, 1.7285545996855944];;;;;;110102;001;2023-11-27_12h18.52.572;REPSWITCH1_version1_list2;2022.2.4;143.92817420724344;
REPSWITCH1/PICTURE_610.png;miel;speak;gold;filler;2;F;4;3;2;1;Stim2_Set3;0;None;83;82;83;0;82;82;82;;;;;;;;;;;;;;;;;;;;;;;411.23704669997096;412.33438579994254;412.33438579994254;412.33438579994254;412.33438579994254;412.33438579994254;412.33438579994254;412.33438579994254;412.33438579994254;None;0;;C:\2023\REPSWITCH21092023\REPSWITCH_excgange\REPSWITCH_excgange\data/110102_REPSWITCH1_version1_list2_2023-11-27_12h18.52.572_micRespv1l2_recorded\recording_micRespv1l2_2023-11-27_12h25.40.962.wav;415.35559600009583;415.85568520007655;None;415.35559600009583;415.35559600009583;415.35559600009583;415.35559600009583;415.35559600009583;415.35559600009583;;;;;;;110102;001;2023-11-27_12h18.52.572;REPSWITCH1_version1_list2;2022.2.4;143.92817420724344;
REPSWITCH1/PICTURE_687.png;camisa;speak;gold;nontarget;2;NT;4;3;2;1;Stim5_Set4;1;repeat;84;83;84;0;83;83;83;;;;;;;;;;;;;;;;;;;;;;;415.85568520007655;416.99477280001156;416.99477280001156;416.99477280001156;416.99477280001156;416.99477280001156;416.99477280001156;416.99477280001156;416.99477280001156;None;0;;C:\2023\REPSWITCH21092023\REPSWITCH_excgange\REPSWITCH_excgange\data/110102_REPSWITCH1_version1_list2_2023-11-27_12h18.52.572_micRespv1l2_recorded\recording_micRespv1l2_2023-11-27_12h25.45.622.wav;420.015936100157;420.51600930001587;None;420.015936100157;420.015936100157;420.015936100157;420.015936100157;420.015936100157;420.015936100157;;;;;;;110102;001;2023-11-27_12h18.52.572;REPSWITCH1_version1_list2;2022.2.4;143.92817420724344;
REPSWITCH1/PICTURE_687.png;camisa;type;darkblue;switch;1;T;4;3;2;1;Stim5_Set4;0;None;85;84;85;0;84;84;84;;;;;;;;;;;;;;;;;;;;;;;420.51600930001587;421.68978060013615;421.68978060013615;421.68978060013615;421.68978060013615;421.68978060013615;421.68978060013615;421.68978060013615;421.68978060013615;['c', 'a', 'm', 'i', 's', 'a'];0;camisa;C:\2023\REPSWITCH21092023\REPSWITCH_excgange\REPSWITCH_excgange\data/110102_REPSWITCH1_version1_list2_2023-11-27_12h18.52.572_micRespv1l2_recorded\recording_micRespv1l2_2023-11-27_12h25.50.317.wav;424.7110054001678;425.2110756000038;None;424.7110054001678;424.7110054001678;424.7110054001678;424.7110054001678;424.7110054001678;424.7110054001678;[0.8995333998464048, 1.0747142999898642, 1.1723835000302643, 1.2750001999083906, 1.3746962000150234, 1.5247148999478668];;;;;;110102;001;2023-11-27_12h18.52.572;REPSWITCH1_version1_list2;2022.2.4;143.92817420724344;
REPSWITCH1/PICTURE_319.png;vaca;type;darkblue;nontarget;1;NT;4;3;2;1;Stim1_Set4;0;None;86;85;86;0;85;85;85;;;;;;;;;;;;;;;;;;;;;;;425.2110756000038;426.32933140010573;426.32933140010573;426.32933140010573;426.32933140010573;426.32933140010573;426.32933140010573;426.32933140010573;426.32933140010573;['v', 'a', 'c', 'a'];0;vaca;C:\2023\REPSWITCH21092023\REPSWITCH_excgange\REPSWITCH_excgange\data/110102_REPSWITCH1_version1_list2_2023-11-27_12h18.52.572_micRespv1l2_recorded\recording_micRespv1l2_2023-11-27_12h25.54.957.wav;429.3574696001597;;None;429.3574696001597;429.3574696001597;429.3574696001597;429.3574696001597;429.3574696001597;429.3574696001597;[0.9562471997924149, 1.0937919998541474, 1.2134505999274552, 1.3190455997828394];;;;;;110102;001;2023-11-27_12h18.52.572;REPSWITCH1_version1_list2;2022.2.4;143.92817420724344;
REPSWITCH1/PICTURE_319.png;vaca;speak;gold;switch;2;T;4;3;2;1;Stim1_Set4;0;None;87;86;87;0;86;86;86;;;;;;;;;;;;;;;;;;;;;;;429.8576056000311;431.045263200067;431.045263200067;431.045263200067;431.045263200067;431.045263200067;431.045263200067;431.045263200067;431.045263200067;None;0;;C:\2023\REPSWITCH21092023\REPSWITCH_excgange\REPSWITCH_excgange\data/110102_REPSWITCH1_version1_list2_2023-11-27_12h18.52.572_micRespv1l2_recorded\recording_micRespv1l2_2023-11-27_12h25.59.672.wav;434.0664270000998;434.56654280005023;None;434.0664270000998;434.0664270000998;434.0664270000998;434.0664270000998;434.0664270000998;434.0664270000998;;;;;;;110102;001;2023-11-27_12h18.52.572;REPSWITCH1_version1_list2;2022.2.4;143.92817420724344;
REPSWITCH1/PICTURE_464.png;goma;type;darkblue;filler;1;F;4;3;2;1;Stim6_Set3;1;switch;88;87;88;0;87;87;87;;;;;;;;;;;;;;;;;;;;;;;434.56654280005023;435.67773530003615;435.67773530003615;435.67773530003615;435.67773530003615;435.67773530003615;435.67773530003615;435.67773530003615;435.67773530003615;['g', 'o', 'm', 'a'];0;goma;C:\2023\REPSWITCH21092023\REPSWITCH_excgange\REPSWITCH_excgange\data/110102_REPSWITCH1_version1_list2_2023-11-27_12h18.52.572_micRespv1l2_recorded\recording_micRespv1l2_2023-11-27_12h26.04.304.wav;438.69897829997353;439.1990217999555;None;438.69897829997353;438.69897829997353;438.69897829997353;438.69897829997353;438.69897829997353;438.69897829997353;[1.0278246998786926, 1.125915699871257, 1.2843117997981608, 1.3869568000081927];;;;;;110102;001;2023-11-27_12h18.52.572;REPSWITCH1_version1_list2;2022.2.4;143.92817420724344;
REPSWITCH1/PICTURE_728.png;pulpo;speak;gold;nontarget;2;NT;4;3;2;1;Stim8_Set4;1;switch;89;88;89;0;88;88;88;;;;;;;;;;;;;;;;;;;;;;;439.1990217999555;440.3311125000473;440.3311125000473;440.3311125000473;440.3311125000473;440.3311125000473;440.3311125000473;440.3311125000473;440.3311125000473;None;0;;C:\2023\REPSWITCH21092023\REPSWITCH_excgange\REPSWITCH_excgange\data/110102_REPSWITCH1_version1_list2_2023-11-27_12h18.52.572_micRespv1l2_recorded\recording_micRespv1l2_2023-11-27_12h26.08.958.wav;443.352414800087;443.85242810007185;None;443.352414800087;443.352414800087;443.352414800087;443.352414800087;443.352414800087;443.352414800087;;;;;;;110102;001;2023-11-27_12h18.52.572;REPSWITCH1_version1_list2;2022.2.4;143.92817420724344;
REPSWITCH1/PICTURE_728.png;pulpo;speak;gold;repeat;2;T;4;3;2;1;Stim8_Set4;0;None;90;89;90;0;89;89;89;;;;;;;;;;;;;;;;;;;;;;;443.85242810007185;444.99144969996996;444.99144969996996;444.99144969996996;444.99144969996996;444.99144969996996;444.99144969996996;444.99144969996996;444.99144969996996;None;0;;C:\2023\REPSWITCH21092023\REPSWITCH_excgange\REPSWITCH_excgange\data/110102_REPSWITCH1_version1_list2_2023-11-27_12h18.52.572_micRespv1l2_recorded\recording_micRespv1l2_2023-11-27_12h26.13.618.wav;448.01269740005955;448.5127408001572;None;448.01269740005955;448.01269740005955;448.01269740005955;448.01269740005955;448.01269740005955;448.01269740005955;;;;;;;110102;001;2023-11-27_12h18.52.572;REPSWITCH1_version1_list2;2022.2.4;143.92817420724344;
REPSWITCH1/PICTURE_320.png;iglesia;type;darkblue;filler;1;F;4;3;2;1;Stim8_Set3;0;None;91;90;91;0;90;90;90;;;;;;;;;;;;;;;;;;;;;;;448.5127408001572;449.5823850999586;449.5823850999586;449.5823850999586;449.5823850999586;449.5823850999586;449.5823850999586;449.5823850999586;449.5823850999586;['i', 'g', 'l', 'e', 's', 'i', 'a'];0;iglesia;C:\2023\REPSWITCH21092023\REPSWITCH_excgange\REPSWITCH_excgange\data/110102_REPSWITCH1_version1_list2_2023-11-27_12h18.52.572_micRespv1l2_recorded\recording_micRespv1l2_2023-11-27_12h26.18.210.wav;452.6035689001437;453.1036344000604;None;452.6035689001437;452.6035689001437;452.6035689001437;452.6035689001437;452.6035689001437;452.6035689001437;[1.2154099999461323, 1.3828700999729335, 1.5234451000578701, 1.6245267000049353, 1.8477795999497175, 2.0125680998899043, 2.1391388999763876];;;;;;110102;001;2023-11-27_12h18.52.572;REPSWITCH1_version1_list2;2022.2.4;143.92817420724344;
REPSWITCH1/PICTURE_576.png;guante;speak;gold;filler;2;F;4;3;2;1;Stim1_Set3;0;None;92;91;92;0;91;91;91;;;;;;;;;;;;;;;;;;;;;;;453.1036344000604;454.1801972000394;454.1801972000394;454.1801972000394;454.1801972000394;454.1801972000394;454.1801972000394;454.1801972000394;454.1801972000394;None;0;;C:\2023\REPSWITCH21092023\REPSWITCH_excgange\REPSWITCH_excgange\data/110102_REPSWITCH1_version1_list2_2023-11-27_12h18.52.572_micRespv1l2_recorded\recording_micRespv1l2_2023-11-27_12h26.22.808.wav;457.2084143999964;;None;457.2084143999964;457.2084143999964;457.2084143999964;457.2084143999964;457.2084143999964;457.2084143999964;;;;;;;110102;001;2023-11-27_12h18.52.572;REPSWITCH1_version1_list2;2022.2.4;143.92817420724344;
REPSWITCH1/PICTURE_8.png;pierna;speak;gold;nontarget;2;NT;4;3;2;1;Stim3_Set4;1;repeat;93;92;93;0;92;92;92;;;;;;;;;;;;;;;;;;;;;;;457.70847660000436;458.7779994001612;458.7779994001612;458.7779994001612;458.7779994001612;458.7779994001612;458.7779994001612;458.7779994001612;458.7779994001612;None;0;;C:\2023\REPSWITCH21092023\REPSWITCH_excgange\REPSWITCH_excgange\data/110102_REPSWITCH1_version1_list2_2023-11-27_12h18.52.572_micRespv1l2_recorded\recording_micRespv1l2_2023-11-27_12h26.27.405.wav;461.79921249998733;462.2992912000045;None;461.79921249998733;461.79921249998733;461.79921249998733;461.79921249998733;461.79921249998733;461.79921249998733;;;;;;;110102;001;2023-11-27_12h18.52.572;REPSWITCH1_version1_list2;2022.2.4;143.92817420724344;
REPSWITCH1/PICTURE_8.png;pierna;type;darkblue;switch;1;T;4;3;2;1;Stim3_Set4;0;None;94;93;94;0;93;93;93;;;;;;;;;;;;;;;;;;;;;;;462.2992912000045;463.49387480015866;463.49387480015866;463.49387480015866;463.49387480015866;463.49387480015866;463.49387480015866;463.49387480015866;463.49387480015866;['p', 'i', 'e', 'r', 'n', 'a'];0;pierna;C:\2023\REPSWITCH21092023\REPSWITCH_excgange\REPSWITCH_excgange\data/110102_REPSWITCH1_version1_list2_2023-11-27_12h18.52.572_micRespv1l2_recorded\recording_micRespv1l2_2023-11-27_12h26.32.121.wav;466.51511620008387;467.0151821000036;None;466.51511620008387;466.51511620008387;466.51511620008387;466.51511620008387;466.51511620008387;466.51511620008387;[1.185328699881211, 1.357137099839747, 1.5058971997350454, 1.6155642997473478, 1.8695925998035818, 1.9911754997447133];;;;;;110102;001;2023-11-27_12h18.52.572;REPSWITCH1_version1_list2;2022.2.4;143.92817420724344;
REPSWITCH1/PICTURE_673.png;tenedor;speak;gold;filler;2;F;4;3;2;1;Extra5;0;None;95;94;95;0;94;94;94;;;;;;;;;;;;;;;;;;;;;;;467.0151821000036;468.1194748999551;468.1194748999551;468.1194748999551;468.1194748999551;468.1194748999551;468.1194748999551;468.1194748999551;468.1194748999551;None;0;;C:\2023\REPSWITCH21092023\REPSWITCH_excgange\REPSWITCH_excgange\data/110102_REPSWITCH1_version1_list2_2023-11-27_12h18.52.572_micRespv1l2_recorded\recording_micRespv1l2_2023-11-27_12h26.36.747.wav;471.1406884000171;471.6408343000803;None;471.1406884000171;471.1406884000171;471.1406884000171;471.1406884000171;471.1406884000171;471.1406884000171;;;;;;;110102;001;2023-11-27_12h18.52.572;REPSWITCH1_version1_list2;2022.2.4;143.92817420724344;
REPSWITCH1/PICTURE_35.png;oreja;type;darkblue;filler;1;F;4;3;2;1;Stim5_Set3;1;switch;96;95;96;0;95;95;95;;;;;;;;;;;;;;;;;;;;;;;471.6408343000803;472.7381939999759;472.7381939999759;472.7381939999759;472.7381939999759;472.7381939999759;472.7381939999759;472.7381939999759;472.7381939999759;['o', 'r', 'e', 'j', 'a'];0;oreja;C:\2023\REPSWITCH21092023\REPSWITCH_excgange\REPSWITCH_excgange\data/110102_REPSWITCH1_version1_list2_2023-11-27_12h18.52.572_micRespv1l2_recorded\recording_micRespv1l2_2023-11-27_12h26.41.365.wav;475.7594568000641;476.25951809994876;None;475.7594568000641;475.7594568000641;475.7594568000641;475.7594568000641;475.7594568000641;475.7594568000641;[0.9384530999232084, 1.075369699858129, 1.1843210998922586, 1.328228899743408, 1.437818099744618];;;;;;110102;001;2023-11-27_12h18.52.572;REPSWITCH1_version1_list2;2022.2.4;143.92817420724344;
REPSWITCH1/PICTURE_663.png;columna;speak;gold;filler;2;F;4;3;2;1;Extra6;0;None;97;96;97;0;96;96;96;;;;;;;;;;;;;;;;;;;;;;;476.25951809994876;477.3082109999377;477.3082109999377;477.3082109999377;477.3082109999377;477.3082109999377;477.3082109999377;477.3082109999377;477.3082109999377;None;0;;C:\2023\REPSWITCH21092023\REPSWITCH_excgange\REPSWITCH_excgange\data/110102_REPSWITCH1_version1_list2_2023-11-27_12h18.52.572_micRespv1l2_recorded\recording_micRespv1l2_2023-11-27_12h26.45.936.wav;480.3363812000025;480.83643719996326;None;480.3363812000025;480.3363812000025;480.3363812000025;480.3363812000025;480.3363812000025;480.3363812000025;;;;;;;110102;001;2023-11-27_12h18.52.572;REPSWITCH1_version1_list2;2022.2.4;143.92817420724344;
REPSWITCH1/PICTURE_242.png;cartero;type;darkblue;filler;1;F;4;3;2;1;Stim3_Set3;1;switch;98;97;98;0;97;97;97;;;;;;;;;;;;;;;;;;;;;;;480.83643719996326;482.0172107000835;482.0172107000835;482.0172107000835;482.0172107000835;482.0172107000835;482.0172107000835;482.0172107000835;482.0172107000835;['c', 'a', 'r', 't', 'e', 'r', 'o'];0;cartero;C:\2023\REPSWITCH21092023\REPSWITCH_excgange\REPSWITCH_excgange\data/110102_REPSWITCH1_version1_list2_2023-11-27_12h18.52.572_micRespv1l2_recorded\recording_micRespv1l2_2023-11-27_12h26.50.645.wav;485.0383802000433;485.53844140004367;None;485.0383802000433;485.0383802000433;485.0383802000433;485.0383802000433;485.0383802000433;485.0383802000433;[0.9946993000339717, 1.1900418000295758, 1.3246919999364763, 1.4213606000412256, 1.5521865000482649, 1.6896707999985665, 1.836186399916187];;;;;;110102;001;2023-11-27_12h18.52.572;REPSWITCH1_version1_list2;2022.2.4;143.92817420724344;
REPSWITCH1/PICTURE_48.png;bombero;type;darkblue;nontarget;1;NT;4;3;2;1;Stim7_Set4;1;repeat;99;98;99;0;98;98;98;;;;;;;;;;;;;;;;;;;;;;;485.53844140004367;486.57334699993953;486.57334699993953;486.57334699993953;486.57334699993953;486.57334699993953;486.57334699993953;486.57334699993953;486.57334699993953;['b', 'o', 'm', 'b', 'e', 'r', 'o'];0;bombero;C:\2023\REPSWITCH21092023\REPSWITCH_excgange\REPSWITCH_excgange\data/110102_REPSWITCH1_version1_list2_2023-11-27_12h18.52.572_micRespv1l2_recorded\recording_micRespv1l2_2023-11-27_12h26.55.200.wav;489.5945357000455;490.0946653999854;None;489.5945357000455;489.5945357000455;489.5945357000455;489.5945357000455;489.5945357000455;489.5945357000455;[1.3386967999394983, 1.4760117998812348, 1.667289099888876, 1.8855828999076039, 1.9633996000047773, 2.0580704999156296, 2.1716926000081003];;;;;;110102;001;2023-11-27_12h18.52.572;REPSWITCH1_version1_list2;2022.2.4;143.92817420724344;
REPSWITCH1/PICTURE_48.png;bombero;type;darkblue;repeat;1;T;4;3;2;1;Stim7_Set4;0;None;100;99;100;0;99;99;99;;;;;;;;;;;;;;;;;;;;;;;490.0946653999854;491.1920247999951;491.1920247999951;491.1920247999951;491.1920247999951;491.1920247999951;491.1920247999951;491.1920247999951;491.1920247999951;['b', 'o', 'm', 'b', 'e', 'r', 'o'];0;bombero;C:\2023\REPSWITCH21092023\REPSWITCH_excgange\REPSWITCH_excgange\data/110102_REPSWITCH1_version1_list2_2023-11-27_12h18.52.572_micRespv1l2_recorded\recording_micRespv1l2_2023-11-27_12h26.59.819.wav;494.21317070000805;494.71325869997963;None;494.21317070000805;494.21317070000805;494.21317070000805;494.21317070000805;494.21317070000805;494.21317070000805;[0.775690299924463, 0.9094867999665439, 1.1177584999240935, 1.3211607998237014, 1.682619099970907, 1.8062040000222623, 1.9551651999354362];;;;;;110102;001;2023-11-27_12h18.52.572;REPSWITCH1_version1_list2;2022.2.4;143.92817420724344;
REPSWITCH1/PICTURE_391.png;cadena;speak;gold;filler;2;F;4;3;2;1;Extra2;0;None;101;100;101;0;100;100;100;;;;;;;;;;;;;;;;;;;;;;;494.71325869997963;495.8731494001113;495.8731494001113;495.8731494001113;495.8731494001113;495.8731494001113;495.8731494001113;495.8731494001113;495.8731494001113;None;0;;C:\2023\REPSWITCH21092023\REPSWITCH_excgange\REPSWITCH_excgange\data/110102_REPSWITCH1_version1_list2_2023-11-27_12h18.52.572_micRespv1l2_recorded\recording_micRespv1l2_2023-11-27_12h27.04.501.wav;498.90130360005423;;None;498.90130360005423;498.90130360005423;498.90130360005423;498.90130360005423;498.90130360005423;498.90130360005423;;;;;;;110102;001;2023-11-27_12h18.52.572;REPSWITCH1_version1_list2;2022.2.4;143.92817420724344;
REPSWITCH1/PICTURE_590.png;escoba;type;darkblue;filler;1;F;4;3;2;1;Extra3;0;None;102;101;102;0;101;101;101;;;;;;;;;;;;;;;;;;;;;;;499.4013563001063;500.51962999999523;500.51962999999523;500.51962999999523;500.51962999999523;500.51962999999523;500.51962999999523;500.51962999999523;500.51962999999523;['e', 's', 'c', 'o', 'b', 'a'];0;escoba;C:\2023\REPSWITCH21092023\REPSWITCH_excgange\REPSWITCH_excgange\data/110102_REPSWITCH1_version1_list2_2023-11-27_12h18.52.572_micRespv1l2_recorded\recording_micRespv1l2_2023-11-27_12h27.09.147.wav;503.54080100008287;504.0409150000196;space;503.54080100008287;503.54080100008287;503.54080100008287;503.54080100008287;503.54080100008287;503.54080100008287;[0.9985449998639524, 1.2524617998860776, 1.5348558998666704, 1.6425432998221368, 1.8718117999378592, 1.9854307998903096];504.0409150000196;504.0409150000196;10.841772199841216;;;110102;001;2023-11-27_12h18.52.572;REPSWITCH1_version1_list2;2022.2.4;143.92817420724344;
REPSWITCH1/PICTURE_340.png;espejo;type;darkblue;filler;1;F;1;1;2;1;Extra1;0;None;103;102;1;0;102;102;102;;;;;;;;;;;;;;;;;;;;;;;514.8964553000405;515.9591455999762;515.9591455999762;515.9591455999762;515.9591455999762;515.9591455999762;515.9591455999762;515.9591455999762;515.9591455999762;['e', 's', 'p', 'e', 'j', 'o'];0;espejo;C:\2023\REPSWITCH21092023\REPSWITCH_excgange\REPSWITCH_excgange\data/110102_REPSWITCH1_version1_list2_2023-11-27_12h18.52.572_micRespv1l2_recorded\recording_micRespv1l2_2023-11-27_12h27.24.587.wav;518.9872701000422;;None;518.9872701000422;518.9872701000422;518.9872701000422;518.9872701000422;518.9872701000422;518.9872701000422;[0.7787501998245716, 0.9820524998940527, 1.7275925998110324, 1.8894331997726113, 2.0037653998006135, 2.1373228998854756];;;;;;110102;001;2023-11-27_12h18.52.572;REPSWITCH1_version1_list2;2022.2.4;143.92817420724344;
REPSWITCH1/PICTURE_391.png;cadena;speak;gold;filler;2;F;1;1;2;1;Extra2;0;None;104;103;2;0;103;103;103;;;;;;;;;;;;;;;;;;;;;;;519.4873439001385;520.5708057000302;520.5708057000302;520.5708057000302;520.5708057000302;520.5708057000302;520.5708057000302;520.5708057000302;520.5708057000302;None;0;;C:\2023\REPSWITCH21092023\REPSWITCH_excgange\REPSWITCH_excgange\data/110102_REPSWITCH1_version1_list2_2023-11-27_12h18.52.572_micRespv1l2_recorded\recording_micRespv1l2_2023-11-27_12h27.29.198.wav;523.592052299995;524.0921130999923;None;523.592052299995;523.592052299995;523.592052299995;523.592052299995;523.592052299995;523.592052299995;;;;;;;110102;001;2023-11-27_12h18.52.572;REPSWITCH1_version1_list2;2022.2.4;143.92817420724344;
REPSWITCH1/PICTURE_178.png;puente;speak;gold;nontarget;2;NT;1;1;2;1;Stim1_Set1;1;repeat;105;104;3;0;104;104;104;;;;;;;;;;;;;;;;;;;;;;;524.0921130999923;525.1825258000754;525.1825258000754;525.1825258000754;525.1825258000754;525.1825258000754;525.1825258000754;525.1825258000754;525.1825258000754;None;0;;C:\2023\REPSWITCH21092023\REPSWITCH_excgange\REPSWITCH_excgange\data/110102_REPSWITCH1_version1_list2_2023-11-27_12h18.52.572_micRespv1l2_recorded\recording_micRespv1l2_2023-11-27_12h27.33.810.wav;528.2106866000686;;None;528.2106866000686;528.2106866000686;528.2106866000686;528.2106866000686;528.2106866000686;528.2106866000686;;;;;;;110102;001;2023-11-27_12h18.52.572;REPSWITCH1_version1_list2;2022.2.4;143.92817420724344;
REPSWITCH1/PICTURE_178.png;puente;speak;gold;repeat;2;T;1;1;2;1;Stim1_Set1;0;None;106;105;4;0;105;105;105;;;;;;;;;;;;;;;;;;;;;;;528.7107434000354;529.7248109001666;529.7248109001666;529.7248109001666;529.7248109001666;529.7248109001666;529.7248109001666;529.7248109001666;529.7248109001666;None;0;;C:\2023\REPSWITCH21092023\REPSWITCH_excgange\REPSWITCH_excgange\data/110102_REPSWITCH1_version1_list2_2023-11-27_12h18.52.572_micRespv1l2_recorded\recording_micRespv1l2_2023-11-27_12h27.38.352.wav;532.7459881000686;533.2461494000163;None;532.7459881000686;532.7459881000686;532.7459881000686;532.7459881000686;532.7459881000686;532.7459881000686;;;;;;;110102;001;2023-11-27_12h18.52.572;REPSWITCH1_version1_list2;2022.2.4;143.92817420724344;
REPSWITCH1/PICTURE_319.png;vaca;type;darkblue;filler;1;F;1;1;2;1;Stim1_Set4;0;None;107;106;5;0;106;106;106;;;;;;;;;;;;;;;;;;;;;;;533.2461494000163;534.3574103000574;534.3574103000574;534.3574103000574;534.3574103000574;534.3574103000574;534.3574103000574;534.3574103000574;534.3574103000574;['v', 'a', 'c', 'a'];0;vaca;C:\2023\REPSWITCH21092023\REPSWITCH_excgange\REPSWITCH_excgange\data/110102_REPSWITCH1_version1_list2_2023-11-27_12h18.52.572_micRespv1l2_recorded\recording_micRespv1l2_2023-11-27_12h27.42.985.wav;537.3855282999575;;None;537.3855282999575;537.3855282999575;537.3855282999575;537.3855282999575;537.3855282999575;537.3855282999575;[0.8875871000345796, 0.9992040998768061, 1.1028545999433845, 1.1835791999474168];;;;;;110102;001;2023-11-27_12h18.52.572;REPSWITCH1_version1_list2;2022.2.4;143.92817420724344;
REPSWITCH1/PICTURE_381.png;fresa;speak;gold;nontarget;2;NT;1;1;2;1;Stim2_Set1;1;switch;108;107;6;0;107;107;107;;;;;;;;;;;;;;;;;;;;;;;537.885571999941;538.927405500086;538.927405500086;538.927405500086;538.927405500086;538.927405500086;538.927405500086;538.927405500086;538.927405500086;None;0;;C:\2023\REPSWITCH21092023\REPSWITCH_excgange\REPSWITCH_excgange\data/110102_REPSWITCH1_version1_list2_2023-11-27_12h18.52.572_micRespv1l2_recorded\recording_micRespv1l2_2023-11-27_12h27.47.556.wav;541.955573100131;;None;541.955573100131;541.955573100131;541.955573100131;541.955573100131;541.955573100131;541.955573100131;;;;;;;110102;001;2023-11-27_12h18.52.572;REPSWITCH1_version1_list2;2022.2.4;143.92817420724344;
REPSWITCH1/PICTURE_381.png;fresa;speak;gold;repeat;2;T;1;1;2;1;Stim2_Set1;0;None;109;108;7;0;108;108;108;;;;;;;;;;;;;;;;;;;;;;;542.4556249000598;543.5322366000619;543.5322366000619;543.5322366000619;543.5322366000619;543.5322366000619;543.5322366000619;543.5322366000619;543.5322366000619;None;0;;C:\2023\REPSWITCH21092023\REPSWITCH_excgange\REPSWITCH_excgange\data/110102_REPSWITCH1_version1_list2_2023-11-27_12h18.52.572_micRespv1l2_recorded\recording_micRespv1l2_2023-11-27_12h27.52.159.wav;546.5533926000353;547.0534531001467;None;546.5533926000353;546.5533926000353;546.5533926000353;546.5533926000353;546.5533926000353;546.5533926000353;;;;;;;110102;001;2023-11-27_12h18.52.572;REPSWITCH1_version1_list2;2022.2.4;143.92817420724344;
REPSWITCH1/PICTURE_719.png;baño;type;darkblue;filler;1;F;1;1;2;1;Stim2_Set4;1;switch;110;109;8;0;109;109;109;;;;;;;;;;;;;;;;;;;;;;;547.0534531001467;548.0675270999782;548.0675270999782;548.0675270999782;548.0675270999782;548.0675270999782;548.0675270999782;548.0675270999782;548.0675270999782;['b', 'a', 'ñ', 'o'];0;baño;C:\2023\REPSWITCH21092023\REPSWITCH_excgange\REPSWITCH_excgange\data/110102_REPSWITCH1_version1_list2_2023-11-27_12h18.52.572_micRespv1l2_recorded\recording_micRespv1l2_2023-11-27_12h27.56.695.wav;551.0886917000171;551.5888176001608;None;551.0886917000171;551.0886917000171;551.0886917000171;551.0886917000171;551.0886917000171;551.0886917000171;[0.8052467997185886, 1.0428275999147445, 1.3428980999160558, 1.5591603997163475];;;;;;110102;001;2023-11-27_12h18.52.572;REPSWITCH1_version1_list2;2022.2.4;143.92817420724344;
REPSWITCH1/PICTURE_135.png;traje;speak;gold;nontarget;2;NT;1;1;2;1;Stim3_Set1;0;None;111;110;9;0;110;110;110;;;;;;;;;;;;;;;;;;;;;;;551.5888176001608;552.7069510000292;552.7069510000292;552.7069510000292;552.7069510000292;552.7069510000292;552.7069510000292;552.7069510000292;552.7069510000292;None;0;;C:\2023\REPSWITCH21092023\REPSWITCH_excgange\REPSWITCH_excgange\data/110102_REPSWITCH1_version1_list2_2023-11-27_12h18.52.572_micRespv1l2_recorded\recording_micRespv1l2_2023-11-27_12h28.01.334.wav;555.7351396000013;;None;555.7351396000013;555.7351396000013;555.7351396000013;555.7351396000013;555.7351396000013;555.7351396000013;;;;;;;110102;001;2023-11-27_12h18.52.572;REPSWITCH1_version1_list2;2022.2.4;143.92817420724344;
REPSWITCH1/PICTURE_135.png;traje;type;darkblue;switch;1;T;1;1;2;1;Stim3_Set1;0;None;112;111;10;0;111;111;111;;;;;;;;;;;;;;;;;;;;;;;556.2352112000808;557.2909179001581;557.2909179001581;557.2909179001581;557.2909179001581;557.2909179001581;557.2909179001581;557.2909179001581;557.2909179001581;['t', 'r', 'a', 'j', 'e'];0;traje;C:\2023\REPSWITCH21092023\REPSWITCH_excgange\REPSWITCH_excgange\data/110102_REPSWITCH1_version1_list2_2023-11-27_12h18.52.572_micRespv1l2_recorded\recording_micRespv1l2_2023-11-27_12h28.05.918.wav;560.3122052000836;560.8121979001444;None;560.3122052000836;560.3122052000836;560.3122052000836;560.3122052000836;560.3122052000836;560.3122052000836;[0.8632282000035048, 1.0396259999834, 1.2053078999742866, 1.4967147998977453, 1.6082851998507977];;;;;;110102;001;2023-11-27_12h18.52.572;REPSWITCH1_version1_list2;2022.2.4;143.92817420724344;
REPSWITCH1/PICTURE_687.png;camisa;speak;gold;filler;2;F;1;1;2;1;Stim5_Set4;0;None;113;112;11;0;112;112;112;;;;;;;;;;;;;;;;;;;;;;;560.8121979001444;561.9859436000697;561.9859436000697;561.9859436000697;561.9859436000697;561.9859436000697;561.9859436000697;561.9859436000697;561.9859436000697;None;0;;C:\2023\REPSWITCH21092023\REPSWITCH_excgange\REPSWITCH_excgange\data/110102_REPSWITCH1_version1_list2_2023-11-27_12h18.52.572_micRespv1l2_recorded\recording_micRespv1l2_2023-11-27_12h28.10.614.wav;565.014209800167;;None;565.014209800167;565.014209800167;565.014209800167;565.014209800167;565.014209800167;565.014209800167;;;;;;;110102;001;2023-11-27_12h18.52.572;REPSWITCH1_version1_list2;2022.2.4;143.92817420724344;
REPSWITCH1/PICTURE_128.png;muñeca;type;darkblue;nontarget;1;NT;1;1;2;1;Stim4_Set1;1;switch;114;113;12;0;113;113;113;;;;;;;;;;;;;;;;;;;;;;;565.5142018001061;566.5977437000256;566.5977437000256;566.5977437000256;566.5977437000256;566.5977437000256;566.5977437000256;566.5977437000256;566.5977437000256;['m', 'u', 'ñ', 'e', 'c', 'a'];0;muñeca;C:\2023\REPSWITCH21092023\REPSWITCH_excgange\REPSWITCH_excgange\data/110102_REPSWITCH1_version1_list2_2023-11-27_12h18.52.572_micRespv1l2_recorded\recording_micRespv1l2_2023-11-27_12h28.15.224.wav;569.6188882000279;570.1189709999599;None;569.6188882000279;569.6188882000279;569.6188882000279;569.6188882000279;569.6188882000279;569.6188882000279;[1.0232420999091119, 1.1467903999146074, 1.551120299845934, 1.7145185999106616, 2.0772945997305214, 2.1919825999066234];;;;;;110102;001;2023-11-27_12h18.52.572;REPSWITCH1_version1_list2;2022.2.4;143.92817420724344;
REPSWITCH1/PICTURE_128.png;muñeca;speak;gold;switch;2;T;1;1;2;1;Stim4_Set1;0;None;115;114;13;0;114;114;114;;;;;;;;;;;;;;;;;;;;;;;570.1189709999599;571.3344086001161;571.3344086001161;571.3344086001161;571.3344086001161;571.3344086001161;571.3344086001161;571.3344086001161;571.3344086001161;None;0;;C:\2023\REPSWITCH21092023\REPSWITCH_excgange\REPSWITCH_excgange\data/110102_REPSWITCH1_version1_list2_2023-11-27_12h18.52.572_micRespv1l2_recorded\recording_micRespv1l2_2023-11-27_12h28.19.962.wav;574.3625923001673;;None;574.3625923001673;574.3625923001673;574.3625923001673;574.3625923001673;574.3625923001673;574.3625923001673;;;;;;;110102;001;2023-11-27_12h18.52.572;REPSWITCH1_version1_list2;2022.2.4;143.92817420724344;
REPSWITCH1/PICTURE_8.png;pierna;speak;gold;filler;2;F;1;1;2;1;Stim3_Set4;0;None;116;115;14;0;115;115;115;;;;;;;;;;;;;;;;;;;;;;;574.8626523001585;575.8905830001459;575.8905830001459;575.8905830001459;575.8905830001459;575.8905830001459;575.8905830001459;575.8905830001459;575.8905830001459;None;0;;C:\2023\REPSWITCH21092023\REPSWITCH_excgange\REPSWITCH_excgange\data/110102_REPSWITCH1_version1_list2_2023-11-27_12h18.52.572_micRespv1l2_recorded\recording_micRespv1l2_2023-11-27_12h28.24.518.wav;578.9187160001602;;None;578.9187160001602;578.9187160001602;578.9187160001602;578.9187160001602;578.9187160001602;578.9187160001602;;;;;;;110102;001;2023-11-27_12h18.52.572;REPSWITCH1_version1_list2;2022.2.4;143.92817420724344;
REPSWITCH1/PICTURE_19.png;pavo;speak;gold;nontarget;2;NT;1;1;2;1;Stim5_Set1;0;None;117;116;15;0;116;116;116;;;;;;;;;;;;;;;;;;;;;;;579.4188544000499;580.5022690000478;580.5022690000478;580.5022690000478;580.5022690000478;580.5022690000478;580.5022690000478;580.5022690000478;580.5022690000478;None;0;;C:\2023\REPSWITCH21092023\REPSWITCH_excgange\REPSWITCH_excgange\data/110102_REPSWITCH1_version1_list2_2023-11-27_12h18.52.572_micRespv1l2_recorded\recording_micRespv1l2_2023-11-27_12h28.29.130.wav;583.5305308999959;;None;583.5305308999959;583.5305308999959;583.5305308999959;583.5305308999959;583.5305308999959;583.5305308999959;;;;;;;110102;001;2023-11-27_12h18.52.572;REPSWITCH1_version1_list2;2022.2.4;143.92817420724344;
REPSWITCH1/PICTURE_19.png;pavo;type;darkblue;switch;1;T;1;1;2;1;Stim5_Set1;0;None;118;117;16;0;117;117;117;;;;;;;;;;;;;;;;;;;;;;;584.0305215001572;585.0792901001405;585.0792901001405;585.0792901001405;585.0792901001405;585.0792901001405;585.0792901001405;585.0792901001405;585.0792901001405;['p', 'a', 'v', 'o'];0;pavo;C:\2023\REPSWITCH21092023\REPSWITCH_excgange\REPSWITCH_excgange\data/110102_REPSWITCH1_version1_list2_2023-11-27_12h18.52.572_micRespv1l2_recorded\recording_micRespv1l2_2023-11-27_12h28.33.707.wav;588.1075059999712;;None;588.1075059999712;588.1075059999712;588.1075059999712;588.1075059999712;588.1075059999712;588.1075059999712;[0.9544714000076056, 1.121384299825877, 1.369163499912247, 1.5526034999638796];;;;;;110102;001;2023-11-27_12h18.52.572;REPSWITCH1_version1_list2;2022.2.4;143.92817420724344;
REPSWITCH1/PICTURE_16.png;cazador;type;darkblue;nontarget;1;NT;1;1;2;1;Stim6_Set1;1;switch;119;118;17;0;118;118;118;;;;;;;;;;;;;;;;;;;;;;;588.6075075999834;589.7257318999618;589.7257318999618;589.7257318999618;589.7257318999618;589.7257318999618;589.7257318999618;589.7257318999618;589.7257318999618;['c', 'a', 'z', 'a', 'd', 'o', 'r'];0;cazador;C:\2023\REPSWITCH21092023\REPSWITCH_excgange\REPSWITCH_excgange\data/110102_REPSWITCH1_version1_list2_2023-11-27_12h18.52.572_micRespv1l2_recorded\recording_micRespv1l2_2023-11-27_12h28.38.353.wav;592.7469359999523;593.2470056000166;None;592.7469359999523;592.7469359999523;592.7469359999523;592.7469359999523;592.7469359999523;592.7469359999523;[1.0116200998891145, 1.0933423000387847, 1.3026393000036478, 1.6574532000813633, 2.0414922998752445, 2.2272340999916196, 2.336874400032684];;;;;;110102;001;2023-11-27_12h18.52.572;REPSWITCH1_version1_list2;2022.2.4;143.92817420724344;
REPSWITCH1/PICTURE_16.png;cazador;type;darkblue;repeat;1;T;1;1;2;1;Stim6_Set1;0;None;120;119;18;0;119;119;119;;;;;;;;;;;;;;;;;;;;;;;593.2470056000166;594.3305341000669;594.3305341000669;594.3305341000669;594.3305341000669;594.3305341000669;594.3305341000669;594.3305341000669;594.3305341000669;['c', 'a', 'z', 'a', 'd', 'o', 'r'];0;cazador;C:\2023\REPSWITCH21092023\REPSWITCH_excgange\REPSWITCH_excgange\data/110102_REPSWITCH1_version1_list2_2023-11-27_12h18.52.572_micRespv1l2_recorded\recording_micRespv1l2_2023-11-27_12h28.42.958.wav;597.3587336000055;;None;597.3587336000055;597.3587336000055;597.3587336000055;597.3587336000055;597.3587336000055;597.3587336000055;[0.8986796999815851, 1.0692964000627398, 1.2690365999005735, 1.4136914000846446, 1.6479666999075562, 1.8462072000838816, 1.963123599998653];;;;;;110102;001;2023-11-27_12h18.52.572;REPSWITCH1_version1_list2;2022.2.4;143.92817420724344;
REPSWITCH1/PICTURE_498.png;taza;speak;gold;filler;2;F;1;1;2;1;Stim4_Set4;0;None;121;120;19;0;120;120;120;;;;;;;;;;;;;;;;;;;;;;;597.8587015001103;598.9352657999843;598.9352657999843;598.9352657999843;598.9352657999843;598.9352657999843;598.9352657999843;598.9352657999843;598.9352657999843;None;0;;C:\2023\REPSWITCH21092023\REPSWITCH_excgange\REPSWITCH_excgange\data/110102_REPSWITCH1_version1_list2_2023-11-27_12h18.52.572_micRespv1l2_recorded\recording_micRespv1l2_2023-11-27_12h28.47.562.wav;601.9564877001103;602.4566267000046;None;601.9564877001103;601.9564877001103;601.9564877001103;601.9564877001103;601.9564877001103;601.9564877001103;;;;;;;110102;001;2023-11-27_12h18.52.572;REPSWITCH1_version1_list2;2022.2.4;143.92817420724344;
